Time (S)	Lockin (mV)	Temp (V)
67.33	12.978516	0.963135
67.86	10.943298	0.972023
68.40	10.643921	0.974007
68.92	10.524445	0.974274
69.44	10.584606	0.976784
69.97	10.285866	0.975897
70.50	10.302290	0.979263
71.03	10.113636	0.980742
71.55	10.057983	0.983353
72.08	9.783381	0.981852
72.60	9.790483	0.982370
73.13	9.569869	0.988030
73.65	9.561768	0.988197
74.18	9.272461	0.990175
74.70	9.168091	0.992699
75.23	9.143732	0.991507
75.76	8.901367	0.992395
76.28	8.782848	0.995983
76.80	8.605957	0.996361
77.32	8.447571	0.996284
77.84	8.373413	0.999031
78.36	8.067169	1.001472
78.89	8.026428	1.000290
79.41	7.727051	1.001625
79.93	7.741699	1.005173
80.45	7.652893	1.006851
80.97	7.212982	1.006889
81.50	7.402039	1.008644
82.02	7.321472	1.010246
82.54	7.200623	1.010170
83.06	7.074738	1.008301
83.58	6.954803	1.010628
84.10	6.833038	1.012268
84.62	6.722260	1.015472
85.14	6.094666	1.016426
85.66	6.233368	1.015625
86.18	6.344604	1.015434
86.70	5.723419	1.017532
87.22	6.123047	1.019325
87.74	6.004944	1.022224
88.26	5.889130	1.022148
88.78	5.770111	1.021652
89.30	5.653381	1.021881
89.82	5.540771	1.025314
90.34	5.428162	1.027641
90.86	5.304565	1.028404
91.38	5.205231	1.027908
91.90	4.912720	1.028023
92.42	4.953918	1.031609
92.94	4.835815	1.033974
93.46	4.745178	1.035118
93.98	4.649048	1.035004
94.50	4.483795	1.034431
95.02	4.458618	1.036263
95.54	4.353790	1.038208
96.06	4.259949	1.042175
96.58	4.166107	1.040535
97.10	4.065399	1.041069
97.62	3.981171	1.042023
98.14	3.884125	1.045303
98.66	3.785248	1.048241
99.18	3.687744	1.048050
99.70	3.593903	1.047554
100.22	3.513794	1.047134
100.74	3.408051	1.051331
101.27	3.329773	1.052322
101.79	3.194733	1.052132
102.31	3.115540	1.054420
102.83	3.040009	1.056290
103.35	2.956696	1.057358
103.87	2.885284	1.055794
104.39	2.804260	1.056061
104.91	2.725983	1.060753
105.43	2.652740	1.062546
105.95	2.570343	1.062164
106.47	2.503967	1.061745
106.99	2.423401	1.063957
107.51	2.351990	1.067085
108.03	2.282867	1.068878
108.55	2.207794	1.070175
109.07	2.136383	1.068497
109.59	2.064514	1.070061
110.11	2.001801	1.073990
110.63	1.931305	1.076889
111.15	1.873169	1.076088
111.67	1.801300	1.076546
112.19	1.745911	1.079063
112.71	1.679535	1.082153
113.23	1.626892	1.084747
113.75	1.566467	1.085930
114.27	1.523437	1.085548
114.79	1.460266	1.089668
115.32	1.417236	1.091385
115.84	1.378784	1.095619
116.36	1.327972	1.098175
116.88	1.288147	1.102715
117.40	1.239166	1.105194
117.92	1.198883	1.110764
118.44	1.161804	1.119804
118.96	1.122437	1.133766
119.48	1.096344	1.158447
120.00	1.051025	1.193008
120.52	1.024475	1.236763
121.04	0.994263	1.306686
121.56	0.984650	1.405830
122.08	0.955811	1.522446
122.60	0.948486	1.646423
123.12	0.932465	1.772804
123.64	0.926514	1.894951
124.16	0.926971	2.008476
124.68	0.925140	2.120285
125.20	0.919647	2.215805
125.72	0.933380	2.277527
126.24	0.921021	2.309685
126.76	0.926514	2.332573
127.28	0.921478	2.350616
127.80	0.918274	2.366753
128.32	0.920563	2.373772
128.84	0.918274	2.372894
129.36	0.922394	2.371788
129.88	0.923309	2.378578
130.40	0.917358	2.383232
130.92	0.917358	2.381706
131.44	0.927429	2.377548
131.96	0.920105	2.376289
132.48	0.933838	2.381783
133.00	0.918732	2.384033
133.52	0.930634	2.381096
134.04	0.931549	2.378883
134.56	0.925598	2.378883
135.08	0.921021	2.381134
135.60	0.928802	2.383118
136.12	0.929260	2.378502
136.64	0.933380	2.375526
137.16	0.934753	2.378044
137.68	0.943451	2.380562
138.20	0.941620	2.380714
138.72	0.932922	2.377434
139.24	0.943451	2.373924
139.76	0.937958	2.376442
140.28	0.939789	2.379570
140.80	0.941620	2.379723
141.32	0.930176	2.375336
141.84	0.936127	2.371712
142.36	0.933838	2.377129
142.88	0.932007	2.380714
143.40	0.934296	2.378464
143.92	0.922852	2.373085
144.44	0.922394	2.374115
144.96	0.927429	2.377014
145.48	0.922394	2.379570
146.00	0.917358	2.374420
146.52	0.919189	2.372131
147.04	0.915527	2.371292
147.56	0.903625	2.377014
148.08	0.913696	2.377510
148.60	0.908203	2.373543
149.12	0.909576	2.369347
149.64	0.908661	2.371750
150.16	0.906830	2.395096
150.68	0.913239	2.400017
151.20	0.907288	2.390900
151.72	0.908661	2.378120
152.24	0.906372	2.377930
152.76	0.908203	2.378044
153.28	0.921478	2.371597
153.80	0.914154	2.361603
154.32	0.915985	2.357101
154.84	0.915985	2.358894
155.36	0.928802	2.360725
155.88	0.924225	2.357407
156.40	0.928802	2.353973
156.92	0.936127	2.352371
157.44	0.932465	2.359200
157.96	0.933838	2.363129
158.48	0.932922	2.361259
159.00	0.932007	2.355957
159.52	0.928345	2.351570
160.04	0.926514	2.353401
160.56	0.922394	2.356148
161.08	0.919189	2.352333
161.60	0.932922	2.347679
162.12	0.931549	2.348595
162.64	0.930634	2.355270
163.16	0.931549	2.358093
163.68	0.938873	2.355881
164.20	0.928802	2.352638
164.72	0.926056	2.356682
165.24	0.922394	2.360840
165.76	0.922852	2.363014
166.28	0.924683	2.360954
166.80	0.922394	2.359161
167.32	0.928802	2.360840
167.84	0.927887	2.366638
168.36	0.921478	2.367096
168.88	0.923309	2.363281
169.40	0.927887	2.360878
169.92	0.929940	2.361037
170.44	0.938873	2.370110
170.96	0.939789	2.370377
171.48	0.936127	2.365036
172.00	0.932465	2.363358
172.52	0.936127	2.366638
173.04	0.938416	2.372131
173.56	0.931091	2.369766
174.08	0.934753	2.366486
174.60	0.937958	2.364998
175.12	0.936127	2.367439
175.64	0.938416	2.373314
176.16	0.930176	2.371902
176.68	0.923767	2.368317
177.20	0.933380	2.365990
177.72	0.927429	2.368813
178.24	0.932007	2.374268
178.76	0.929718	2.373505
179.28	0.926056	2.368088
179.80	0.924225	2.365761
180.32	0.921478	2.370415
180.84	0.916443	2.374649
181.36	0.909576	2.370796
181.88	0.902252	2.368126
182.40	0.901794	2.368126
182.92	0.914154	2.369995
183.44	0.906830	2.374153
183.96	0.913696	2.371063
184.48	0.907745	2.382050
185.00	0.913239	2.392120
185.52	0.918274	2.394981
186.04	0.915985	2.384338
186.56	0.920563	2.371101
187.08	0.917358	2.364922
187.60	0.923767	2.384186
188.12	0.910492	2.396545
188.64	0.916901	2.399673
189.16	0.921021	2.396584
189.68	0.926056	2.391357
190.20	0.932922	2.390785
190.72	0.924683	2.395325
191.24	0.920563	2.398720
191.76	0.926514	2.393646
192.28	0.921936	2.390289
192.80	0.934753	2.389755
193.32	0.931091	2.395401
193.84	0.929718	2.396698
194.36	0.927887	2.391357
194.88	0.930176	2.388039
195.40	0.924225	2.388992
195.92	0.924683	2.393532
196.44	0.925598	2.392845
196.96	0.930176	2.390251
197.48	0.930176	2.388306
198.00	0.926056	2.389755
198.52	0.921936	2.394600
199.04	0.923767	2.392311
199.56	0.930176	2.389336
200.08	0.936127	2.386360
200.60	0.928802	2.389488
201.12	0.932922	2.393723
201.64	0.921936	2.391815
202.16	0.936584	2.387276
202.68	0.936127	2.385941
203.20	0.927429	2.390022
203.72	0.937958	2.393303
204.24	0.931091	2.389297
204.76	0.935211	2.386093
205.28	0.926514	2.384796
205.80	0.936584	2.388878
206.32	0.940247	2.393188
206.84	0.934296	2.390022
207.36	0.935211	2.385559
207.88	0.946198	2.385445
208.40	0.935669	2.390289
208.92	0.949402	2.392464
209.44	0.946198	2.387123
209.96	0.945740	2.384529
210.48	0.945282	2.384796
211.00	0.947113	2.388954
211.52	0.950317	2.391624
212.04	0.945282	2.388191
212.56	0.943451	2.384262
213.08	0.940247	2.382431
213.60	0.937958	2.386971
214.12	0.943909	2.390785
214.64	0.937042	2.387047
215.16	0.941162	2.382355
215.68	0.935669	2.383499
216.20	0.934753	2.387123
216.72	0.935669	2.390556
217.24	0.932465	2.386246
217.76	0.921936	2.380829
218.28	0.922394	2.382469
218.80	0.922852	2.387047
219.32	0.919647	2.388153
219.84	0.917816	2.384109
220.36	0.917358	2.382507
220.88	0.917358	2.382278
221.40	0.912781	2.386093
221.92	0.916443	2.387543
222.44	0.906372	2.383766
222.96	0.913239	2.380066
223.48	0.904999	2.381783
224.00	0.909119	2.386131
224.52	0.917358	2.386322
225.04	0.916901	2.381859
225.56	0.915985	2.380486
226.08	0.912781	2.383423
226.60	0.923767	2.387619
227.12	0.916443	2.388229
227.64	0.927429	2.381516
228.16	0.932007	2.378845
228.68	0.917816	2.384796
229.20	0.931549	2.386169
229.72	0.931091	2.383842
230.24	0.931549	2.380486
230.76	0.933838	2.379875
231.28	0.956268	2.386932
231.80	0.043030	2.387352
232.32	3.015747	2.384148
232.84	2.900848	2.379341
233.36	2.563934	2.379532
233.88	9.022522	2.384796
234.40	8.918610	2.386436
234.92	4.867401	2.383347
235.44	11.726074	2.378616
235.96	25.680542	2.382011
236.48	25.835266	2.384567
237.00	11.664276	2.386703
237.52	3.534851	2.382355
238.04	8.119354	2.377014
238.56	8.640747	2.382889
239.08	8.692474	2.385330
239.60	8.705750	2.385254
240.12	8.731842	2.381058
240.64	8.748779	2.379456
241.16	8.749237	2.382927
241.68	8.754730	2.386589
242.20	8.782654	2.383728
242.72	8.800049	2.379799
243.24	8.837585	2.376213
243.76	0.883621	2.382698
244.28	0.884720	2.386131
244.80	0.887695	2.381592
245.32	0.887512	2.377205
245.84	0.888199	2.375565
246.36	0.888611	2.382736
246.88	0.890167	2.386322
247.40	0.889435	2.381020
247.92	0.888611	2.378769
248.44	0.888474	2.379723
248.96	0.888611	2.383003
249.48	0.887878	2.385063
250.00	0.882980	2.381668
250.52	0.884033	2.377357
251.04	0.882751	2.380943
251.56	0.879364	2.384682
252.08	0.878998	2.385635
252.60	0.876801	2.380791
253.12	0.876526	2.378044
253.64	0.873962	2.381363
254.16	0.873550	2.385292
254.68	0.872452	2.385178
255.20	0.873825	2.380486
255.72	0.873093	2.378273
256.24	0.874008	2.383385
256.76	0.874146	2.385941
257.28	0.875793	2.384491
257.80	0.875885	2.380447
258.32	0.878174	2.377701
258.84	0.879456	2.384529
259.36	0.880371	2.386856
259.88	0.882889	2.384987
260.40	0.883026	2.379951
260.92	0.886505	2.379532
261.44	0.887375	2.384109
261.96	0.888153	2.387009
262.48	0.889114	2.383041
263.00	0.891632	2.377548
263.52	0.889618	2.379723
264.04	0.890121	2.383919
264.56	0.891129	2.386398
265.08	0.888611	2.381439
265.60	0.889069	2.378731
266.12	0.887146	2.379494
266.64	0.886139	2.382927
267.16	0.886322	2.384529
267.68	0.883621	2.380829
268.20	0.882751	2.376976
268.72	0.881012	2.379227
269.24	0.878357	2.383423
269.76	0.878403	2.385597
270.28	0.876389	2.379494
270.80	0.877029	2.374878
271.32	0.875427	2.379837
271.84	0.874603	2.383804
272.36	0.875519	2.384033
272.88	0.873322	2.381706
273.40	0.820084	2.376823
273.92	0.867371	2.379913
274.44	0.867599	2.384300
274.96	0.870209	2.381783
275.48	0.817703	2.379189
276.00	0.878723	2.377930
276.52	0.868744	2.381477
277.04	0.821915	2.383957
277.56	0.878677	2.382889
278.08	0.843842	2.379608
278.60	0.880920	2.376366
279.12	0.857803	2.381096
279.64	0.881195	2.383957
280.16	0.885910	2.383385
280.68	0.883759	2.378693
281.20	0.885727	2.375717
281.72	0.886276	2.380943
282.24	0.885544	2.384796
282.76	0.885590	2.384071
283.28	0.885773	2.379417
283.80	0.885681	2.376480
284.32	0.883667	2.380180
284.84	0.885818	2.385368
285.36	0.883484	2.382431
285.88	0.882660	2.378159
286.40	0.880966	2.377319
286.92	0.881195	2.381210
287.44	0.877396	2.385063
287.96	0.877396	2.382965
288.48	0.876297	2.377853
289.00	0.874741	2.376289
289.52	0.873001	2.380791
290.04	0.871948	2.383232
290.56	0.870209	2.382393
291.08	0.869247	2.378235
291.60	0.870529	2.375526
292.12	0.867279	2.380295
292.64	0.867920	2.384758
293.16	0.868011	2.381134
293.68	0.866089	2.377472
