#Time (S)	Lockin (mV)	Temp (V)
77.32	8.525391	0.970459
77.87	10.811462	0.978050
78.39	10.860901	0.980682
78.92	11.022283	0.980705
79.45	10.903320	0.976932
79.98	10.939276	0.977820
80.51	11.064009	0.980373
81.03	10.893999	0.976710
81.56	11.016513	0.977820
82.09	11.069780	0.980742
82.62	10.973011	0.977746
83.15	11.132369	0.976267
83.67	11.061346	0.979115
84.20	11.032937	0.977931
84.73	11.193182	0.975934
85.26	11.070668	0.977857
85.79	11.139471	0.977746
86.31	11.069641	0.978813
86.83	11.075592	0.976181
87.35	11.102600	0.975189
87.87	11.103516	0.976295
88.39	11.136017	0.977898
88.91	11.166687	0.978050
89.43	11.194611	0.975609
89.95	11.246796	0.974770
90.47	11.277924	0.975609
90.99	11.321869	0.977631
91.51	11.380005	0.975494
92.03	11.412964	0.974388
92.55	11.441803	0.972748
93.07	11.468811	0.974770
93.59	11.510925	0.976257
94.11	11.529236	0.974655
94.63	11.533813	0.972061
95.15	11.558075	0.972824
95.67	11.576385	0.975075
96.19	11.565399	0.976181
96.71	11.573639	0.973129
97.23	11.555786	0.971909
97.75	11.562653	0.971718
98.27	11.556702	0.974388
98.79	11.553955	0.974350
99.31	11.555786	0.971756
99.83	11.566315	0.970116
100.35	11.574554	0.972481
100.87	11.578674	0.974350
101.39	11.622620	0.972786
101.91	11.626282	0.970039
102.43	11.679840	0.970688
102.95	11.719666	0.972633
103.47	11.770477	0.972939
103.99	11.793365	0.970535
104.51	11.863861	0.969315
105.03	11.743011	0.971870
105.55	11.777802	0.970039
106.07	11.785583	0.970497
106.59	11.813507	0.971298
107.11	11.828156	0.973701
107.63	11.865692	0.970345
108.15	11.893158	0.968094
108.67	11.953125	0.968132
109.19	11.998444	0.971375
109.71	12.039185	0.971031
110.23	12.107849	0.969696
110.75	12.160950	0.967255
111.27	12.179260	0.969200
111.79	12.239685	0.970345
112.31	12.263489	0.969162
112.83	12.310181	0.967064
113.35	12.339935	0.966339
113.87	12.337189	0.967140
114.39	12.360992	0.968590
114.91	12.383423	0.966682
115.43	12.397156	0.965309
115.95	12.396240	0.966606
116.47	12.396240	0.967560
116.99	12.402191	0.966949
117.51	12.405853	0.965729
118.03	12.415009	0.965004
118.55	12.412720	0.965195
119.07	12.409973	0.966377
119.59	12.436981	0.966377
120.11	12.453003	0.964050
120.63	12.458038	0.963478
121.15	12.481842	0.964622
121.67	12.532654	0.966454
122.19	12.549591	0.964317
122.71	12.593994	0.961609
123.23	12.621918	0.962143
123.75	12.663574	0.963326
124.27	12.707062	0.964661
124.79	12.813721	0.963058
125.31	12.810974	0.960617
125.83	12.889252	0.960922
126.35	12.932739	0.962906
126.87	12.961578	0.961990
127.39	13.008728	0.961075
127.91	13.055420	0.959282
128.43	12.661743	0.959625
128.95	11.119537	0.962105
129.47	13.196411	0.961609
129.99	13.194580	0.959740
130.51	13.244934	0.958672
131.04	12.302856	0.959587
131.56	13.159332	0.956879
132.08	13.229370	0.956688
132.60	13.260498	0.958595
133.12	13.337402	0.959358
133.64	13.361206	0.957985
134.16	13.437653	0.955505
134.68	13.472900	0.956154
135.20	13.518219	0.957336
135.72	13.537445	0.957756
136.24	13.581390	0.956841
136.76	13.608856	0.954514
137.28	13.596039	0.954933
137.80	13.381805	0.957146
138.32	13.670654	0.956345
138.84	13.662872	0.954971
139.36	13.645020	0.953903
139.88	13.683014	0.954056
140.40	13.672485	0.954819
140.92	13.672028	0.955620
141.44	13.704529	0.953140
141.96	13.682098	0.952644
142.48	13.704071	0.953140
143.00	13.729706	0.955238
143.52	13.750305	0.955009
144.04	13.771820	0.951614
144.56	13.817139	0.950356
145.08	13.854218	0.953293
145.60	13.910522	0.954247
146.12	13.976898	0.952797
146.64	14.003448	0.951576
147.16	14.070740	0.950012
147.68	14.126129	0.952110
148.20	14.182434	0.953178
148.72	14.242859	0.951996
149.24	14.272614	0.948448
149.77	14.166870	0.949783
150.29	14.123383	0.948524
150.81	14.170074	0.947495
151.33	14.230957	0.948448
151.85	14.257050	0.950241
152.37	14.318390	0.950127
152.89	14.385681	0.948143
153.41	14.441986	0.947266
153.93	14.504242	0.947762
154.45	14.550476	0.949593
154.97	14.608612	0.949059
155.49	14.645233	0.946198
156.01	14.674072	0.946198
156.53	14.711151	0.946274
157.05	14.737701	0.947914
157.57	14.123840	0.948181
158.09	12.633820	0.945435
158.61	13.905487	0.944138
159.13	13.867493	0.945930
159.65	14.793549	0.946693
160.17	14.680481	0.946617
160.69	14.810944	0.943909
161.21	14.762878	0.941429
161.73	14.401245	0.943756
162.25	13.765869	0.946503
162.77	14.826508	0.945206
163.29	13.289337	0.942917
163.81	14.904327	0.941849
164.33	14.945984	0.943756
164.85	15.000458	0.944939
165.37	14.921265	0.943336
165.89	15.118103	0.941734
166.41	15.166626	0.940437
166.93	14.576569	0.942307
167.45	15.292053	0.944214
167.97	15.344696	0.944290
168.49	15.420227	0.940208
169.01	15.438080	0.939636
169.53	15.487061	0.941162
170.05	15.538330	0.942154
170.57	15.567169	0.940247
171.09	15.587769	0.938263
171.61	15.605164	0.937538
172.13	15.612946	0.938377
172.65	15.593262	0.941315
173.17	15.612030	0.940971
173.69	15.623932	0.937347
174.21	15.605621	0.936127
174.73	15.615234	0.938263
175.25	15.615234	0.939941
175.77	15.616150	0.938492
176.29	15.643616	0.936203
176.81	15.649567	0.934868
177.33	15.660553	0.937614
177.85	15.709991	0.938148
178.37	15.727844	0.936661
178.89	15.777283	0.933914
179.41	15.828094	0.934067
179.93	15.863800	0.935898
180.45	15.935669	0.938606
180.97	15.970459	0.935059
181.49	16.042786	0.934181
182.01	16.105042	0.933571
182.53	15.919544	0.936791
183.06	15.987854	0.934906
183.58	16.014862	0.933685
184.10	16.029510	0.936623
184.62	16.075287	0.935402
185.14	16.324975	0.931830
185.66	16.148071	0.932159
186.18	16.208496	0.932579
186.70	16.263428	0.936737
187.22	16.298676	0.930901
187.74	16.360931	0.929146
188.26	16.421814	0.930977
188.78	16.496887	0.933113
189.30	16.538544	0.934830
189.82	16.587524	0.929489
190.34	16.644287	0.930786
190.86	16.663055	0.930138
191.38	16.737213	0.931358
191.90	16.767426	0.932655
192.42	16.787109	0.930405
192.94	16.796722	0.928574
193.46	16.812744	0.929298
193.98	16.827393	0.932236
194.50	16.835632	0.930786
195.02	16.825104	0.928040
195.54	16.841583	0.926933
196.06	16.803131	0.928230
196.58	16.810913	0.931091
197.10	16.824646	0.930557
197.62	16.810913	0.926170
198.14	16.790314	0.927010
198.66	16.821899	0.927467
199.18	16.842041	0.929832
199.70	16.842041	0.927277
200.22	16.882782	0.924301
200.74	16.927185	0.924797
201.26	16.975250	0.928307
201.78	17.017365	0.928764
202.30	17.067261	0.924683
202.82	17.162933	0.923386
203.34	17.186737	0.924721
203.86	17.259064	0.928230
204.38	17.338715	0.930214
204.90	17.388153	0.927200
205.42	17.437592	0.918808
205.95	17.192230	0.923080
206.47	17.233429	0.919418
206.99	17.281952	0.922241
207.51	17.322235	0.924492
208.03	17.401886	0.925217
208.55	17.478333	0.922050
209.07	17.515411	0.921135
209.59	17.590485	0.922470
210.11	17.637634	0.924149
210.63	17.729187	0.923233
211.15	17.750244	0.919838
211.67	17.809296	0.919495
212.19	17.838135	0.921593
212.71	17.856445	0.922661
213.23	17.831268	0.921097
213.75	15.935211	0.919228
214.27	17.914581	0.918312
214.79	17.909088	0.921211
215.31	17.264557	0.922279
215.83	17.894897	0.918694
216.35	17.896729	0.917358
216.87	17.858276	0.917549
217.39	17.893066	0.920029
217.91	17.885284	0.918770
218.43	17.900391	0.916977
218.95	17.939301	0.916176
219.47	17.958527	0.918388
219.99	17.993317	0.920143
220.51	18.028564	0.919495
221.03	18.117828	0.916824
221.55	18.175964	0.917854
222.07	18.218536	0.917587
222.59	18.298187	0.920677
223.11	18.359985	0.916557
223.63	18.408966	0.914078
224.15	18.494110	0.916328
224.67	18.538971	0.916443
225.19	18.582458	0.917397
225.71	18.616333	0.914421
226.23	18.641052	0.910301
226.75	18.651123	0.914497
227.27	18.650665	0.916595
227.79	18.687744	0.915375
228.31	18.648376	0.912704
228.83	18.657990	0.913353
229.35	18.627319	0.913963
229.87	18.637848	0.914764
230.39	18.619080	0.913086
230.91	18.605804	0.913773
231.43	18.623199	0.913315
231.95	18.595734	0.913620
232.47	18.604431	0.914993
232.99	18.646545	0.912209
233.51	18.666229	0.910568
234.03	18.711090	0.910034
234.55	18.729401	0.914383
235.07	18.760071	0.913162
235.59	18.837433	0.907784
236.11	18.886871	0.909576
236.63	18.927155	0.908775
237.15	19.010010	0.911636
237.67	18.846588	0.906487
238.19	18.940887	0.910263
238.71	18.929443	0.912018
239.23	18.955536	0.910416
239.75	18.972473	0.908127
240.27	18.995361	0.906258
240.79	19.038391	0.908661
241.31	19.068604	0.912476
241.83	19.119415	0.913277
242.35	19.152832	0.906639
242.87	19.224701	0.906868
243.39	19.297028	0.909996
243.91	19.343262	0.910187
244.43	19.396820	0.907402
244.95	19.473724	0.905533
245.47	19.507599	0.905609
245.99	19.548340	0.907936
246.51	19.627075	0.908165
247.04	19.666443	0.905151
247.55	19.686584	0.903473
248.07	19.730988	0.904236
248.59	19.745636	0.907440
249.11	19.792328	0.906410
249.63	19.779510	0.905151
250.15	19.789581	0.903130
250.67	19.801483	0.905647
251.19	19.773560	0.906448
251.71	19.786835	0.903969
252.23	19.777222	0.902596
252.75	19.732361	0.901871
253.27	19.759827	0.903053
253.79	19.765320	0.904617
254.31	19.721832	0.903397
254.83	19.736481	0.901451
255.35	19.757538	0.901146
255.87	19.149170	0.903091
256.39	19.716339	0.902863
256.91	16.057892	0.903168
257.43	19.898071	0.900192
257.95	19.959412	0.901680
258.47	20.015717	0.902977
259.00	17.806091	0.900078
259.52	18.582916	0.902023
260.04	20.116425	0.903473
260.56	18.720703	0.901184
261.08	20.113678	0.899162
261.60	20.155334	0.898361
262.12	18.780670	0.901108
262.64	20.223083	0.902290
263.16	20.228577	0.897865
263.68	20.317383	0.898552
264.21	20.346222	0.898361
264.72	20.428619	0.900421
265.24	20.481262	0.901871
265.76	20.532990	0.898399
266.28	20.605316	0.897331
266.80	20.680847	0.897369
267.32	20.716553	0.899544
267.84	20.797577	0.899277
268.36	20.841064	0.897064
268.88	20.861664	0.895844
269.40	20.880890	0.897217
269.92	20.928497	0.897942
270.44	20.902863	0.896721
270.96	20.908813	0.894852
271.48	20.928955	0.893784
272.00	20.879059	0.897064
272.52	20.876770	0.897713
273.04	20.847931	0.895500
273.56	20.820923	0.893822
274.08	20.820923	0.894012
274.60	20.795746	0.894890
275.12	20.811768	0.896339
275.64	20.790710	0.895958
276.16	20.782013	0.892677
276.68	20.852051	0.893021
277.20	20.906525	0.894547
277.72	20.907898	0.896378
278.24	21.000824	0.893822
278.76	21.069031	0.891380
279.28	21.116180	0.891418
279.80	21.171570	0.892677
280.32	21.266327	0.894547
280.84	21.316681	0.892601
281.36	21.371155	0.890694
281.88	21.454010	0.890694
282.40	21.476440	0.893288
282.92	21.497498	0.894279
283.44	21.536865	0.891190
283.96	21.560669	0.889511
284.48	21.574860	0.889359
285.00	21.545105	0.892334
285.52	21.559753	0.891991
286.04	21.580353	0.890732
286.56	21.529083	0.888329
287.08	21.517181	0.889397
287.60	21.511230	0.890732
288.12	21.478271	0.889778
288.64	21.477356	0.888405
289.16	21.459045	0.887451
289.68	21.480560	0.888863
290.20	21.466827	0.890732
290.72	21.361084	0.890884
291.24	20.958252	0.888519
291.76	21.617432	0.886574
292.28	21.638489	0.887985
292.80	21.694794	0.888710
293.32	21.772614	0.887642
293.84	21.513519	0.887070
294.36	21.913147	0.887184
294.88	21.964417	0.887413
295.40	22.040863	0.888634
295.92	22.076569	0.888252
296.44	22.141113	0.885544
296.96	22.207947	0.884247
297.48	22.217102	0.885773
298.00	22.260590	0.887108
298.52	21.964417	0.886955
299.04	22.495880	0.884361
299.56	17.508087	0.883904
300.08	22.420807	0.884399
300.60	22.466125	0.886765
301.12	20.876770	0.884514
301.64	22.433624	0.882416
302.16	19.509888	0.883522
302.68	22.407990	0.883827
303.20	22.461548	0.885506
303.72	21.918640	0.883331
304.24	22.413483	0.882111
304.76	19.349213	0.882225
305.28	22.327423	0.882492
305.80	22.336578	0.884781
306.32	20.474854	0.883293
306.84	22.326050	0.881348
307.36	20.879517	0.880623
307.88	22.389221	0.882797
308.40	22.381439	0.883675
308.92	22.437286	0.882797
309.44	22.518311	0.879669
309.96	22.529297	0.879059
310.48	22.610321	0.881462
311.00	22.664337	0.883598
311.52	22.725677	0.881538
312.04	22.787933	0.879478
312.56	22.847443	0.879669
313.08	22.921600	0.880470
313.60	22.955475	0.882339
314.12	23.020935	0.879784
314.64	23.052521	0.879745
315.16	23.085022	0.878448
315.68	23.109283	0.880013
316.20	23.139038	0.881195
316.72	23.184357	0.879555
317.24	23.117523	0.877151
317.76	23.172455	0.876160
318.28	23.144989	0.878372
318.80	23.132629	0.879478
319.32	23.121643	0.878067
319.84	23.069916	0.877724
320.36	23.054810	0.876312
320.88	23.053436	0.876312
321.40	23.026428	0.879211
321.92	23.012238	0.876732
322.44	23.027802	0.875511
322.96	23.029633	0.875359
323.48	23.045654	0.877380
324.00	23.095551	0.878677
324.52	23.137665	0.876923
325.04	23.193970	0.874138
325.56	23.225555	0.874367
326.08	23.294220	0.876770
326.60	23.371582	0.878563
327.12	23.462219	0.876656
327.64	23.493805	0.873833
328.16	23.572540	0.872574
328.68	23.663177	0.875816
