#Time (S)	Lockin (mV)	Temp (V)
77.78	0.123047	0.986328
78.30	0.103500	0.981941
78.82	0.104630	0.981865
79.35	0.108147	0.982037
79.88	0.106090	0.981889
80.41	0.103397	0.981186
80.94	0.102421	0.981297
81.46	0.102199	0.980853
81.99	0.104389	0.980558
82.52	0.105868	0.980742
83.05	0.103738	0.980521
83.58	0.107082	0.980003
84.10	0.104093	0.980669
84.63	0.103693	0.979300
85.16	0.104803	0.979300
85.69	0.102687	0.980151
86.22	0.105853	0.979411
86.74	0.104181	0.978782
87.26	0.103897	0.978737
87.78	0.103333	0.977898
88.30	0.105164	0.978050
88.82	0.105057	0.977631
89.34	0.101288	0.976295
89.87	0.100540	0.976944
90.39	0.106995	0.975838
90.91	0.108810	0.974808
91.43	0.103455	0.974693
91.95	0.103745	0.973396
92.47	0.105865	0.973969
92.99	0.105682	0.973549
93.51	0.107407	0.972023
94.03	0.102448	0.972252
94.55	0.105194	0.971451
95.07	0.107819	0.972748
95.59	0.105057	0.972481
96.11	0.109222	0.971107
96.63	0.102386	0.970993
97.15	0.102951	0.970039
97.67	0.106247	0.970726
98.19	0.103668	0.970917
98.71	0.103607	0.969849
99.23	0.105148	0.969276
99.75	0.107391	0.968285
100.27	0.102463	0.967712
100.79	0.106155	0.968819
101.31	0.107315	0.967445
101.83	0.100876	0.966263
102.35	0.103989	0.966911
102.87	0.105988	0.966873
103.39	0.107773	0.966263
103.91	0.101059	0.965424
104.43	0.102844	0.965271
104.95	0.100296	0.965042
105.47	0.102478	0.963707
105.99	0.099121	0.965309
106.51	0.105392	0.963821
107.03	0.106247	0.962257
107.55	0.105347	0.962791
108.07	0.105377	0.961609
108.59	0.107590	0.962677
109.11	0.102448	0.961304
109.63	0.107849	0.960808
110.15	0.108322	0.960503
110.67	0.106537	0.959816
111.19	0.107407	0.960960
111.71	0.105194	0.960884
112.23	0.105850	0.959358
112.75	0.104355	0.959473
113.27	0.101318	0.958061
113.79	0.104797	0.959396
114.31	0.101807	0.958748
114.83	0.103226	0.958252
115.35	0.104477	0.957603
115.87	0.103195	0.956650
116.39	0.107071	0.957985
116.91	0.103928	0.958023
117.43	0.105942	0.956688
117.95	0.104630	0.956001
118.47	0.105621	0.956116
118.99	0.105682	0.956154
119.51	0.109009	0.956917
120.03	0.103760	0.955391
120.55	0.102783	0.955429
121.07	0.108353	0.953484
121.59	0.102249	0.954399
122.11	0.106812	0.955086
122.63	0.108505	0.953369
123.15	0.107697	0.954132
123.67	0.103714	0.952797
124.19	0.107468	0.953751
124.71	0.101440	0.954094
125.23	0.104233	0.951958
125.75	0.105820	0.952721
126.27	0.101730	0.951347
126.79	0.105087	0.951271
127.31	0.104935	0.952377
127.83	0.104324	0.951385
128.35	0.104919	0.950623
128.87	0.104736	0.950813
129.39	0.105759	0.950890
129.91	0.103714	0.950928
130.43	0.103409	0.950127
130.95	0.106735	0.950165
131.47	0.108322	0.949440
131.99	0.105820	0.949211
132.51	0.108322	0.949898
133.03	0.108276	0.948868
133.56	0.105942	0.947838
134.08	0.106140	0.949249
134.60	0.107407	0.947762
135.12	0.105865	0.947304
135.64	0.104752	0.947151
136.16	0.103317	0.948067
136.68	0.104996	0.948105
137.20	0.103271	0.946465
137.73	0.103333	0.947189
138.25	0.106461	0.946579
138.77	0.105408	0.946846
139.29	0.103104	0.946617
139.81	0.104645	0.946503
140.33	0.104797	0.946579
140.85	0.104996	0.946121
141.37	0.106781	0.944786
141.89	0.104721	0.945816
142.41	0.103027	0.944176
142.93	0.102921	0.945091
143.45	0.106735	0.945549
143.97	0.106171	0.945625
144.49	0.104370	0.944519
145.01	0.102539	0.943832
145.54	0.102615	0.944405
146.06	0.107254	0.943680
146.58	0.104111	0.942993
147.10	0.105713	0.944388
147.62	0.105270	0.943260
148.14	0.106796	0.943336
148.66	0.104324	0.943031
149.18	0.101425	0.942154
149.70	0.106171	0.943298
150.22	0.104065	0.942917
150.74	0.106125	0.941772
151.26	0.106384	0.942230
151.78	0.104706	0.940475
152.30	0.108673	0.941315
152.82	0.107452	0.940323
153.35	0.105042	0.941544
153.87	0.104218	0.940895
154.39	0.105103	0.940437
154.91	0.102249	0.940475
155.43	0.107834	0.941696
155.95	0.108597	0.940590
156.47	0.104523	0.939980
156.99	0.104233	0.939751
157.51	0.103928	0.940208
158.03	0.106461	0.940094
158.55	0.102463	0.938797
159.07	0.105377	0.939064
159.59	0.104736	0.939255
160.11	0.103607	0.938339
160.63	0.104721	0.939484
161.15	0.100586	0.939002
161.67	0.106262	0.937767
162.19	0.107132	0.938377
162.71	0.101547	0.938148
163.23	0.106857	0.938377
163.75	0.108704	0.938644
164.27	0.109055	0.937424
164.79	0.109222	0.938187
165.31	0.105453	0.937195
165.83	0.105637	0.937576
166.35	0.107986	0.938187
166.87	0.104858	0.936928
167.39	0.106964	0.936623
167.91	0.105042	0.936356
168.43	0.105728	0.936890
168.95	0.103989	0.937309
169.47	0.101990	0.935822
169.99	0.107346	0.935860
170.52	0.103928	0.935745
171.03	0.102996	0.934980
171.55	0.103851	0.936203
172.07	0.103973	0.935631
172.59	0.099197	0.934868
173.11	0.108954	0.935059
173.63	0.108582	0.934029
174.15	0.109741	0.934715
174.67	0.114502	0.936279
175.19	0.105026	0.934258
175.71	0.108429	0.934105
176.23	0.094086	0.934181
176.75	0.108551	0.934258
177.27	0.110489	0.934753
177.79	0.104111	0.933876
178.31	0.110046	0.933228
178.84	0.114655	0.933418
179.36	0.103363	0.932693
179.88	0.107086	0.933342
180.40	0.108414	0.932617
180.92	0.107635	0.933380
181.44	0.107895	0.933609
181.96	0.106781	0.931358
182.48	0.104950	0.932083
183.00	0.102814	0.931702
183.52	0.109039	0.932159
184.04	0.098648	0.932922
184.56	0.105545	0.931511
185.08	0.102371	0.931396
185.60	0.107483	0.931358
186.12	0.107117	0.929947
186.64	0.107635	0.931892
187.16	0.105179	0.932198
187.68	0.109131	0.930557
188.20	0.109589	0.930634
188.72	0.108383	0.930710
189.24	0.105347	0.931320
189.76	0.108734	0.930939
190.28	0.106308	0.930099
190.80	0.108139	0.929832
191.32	0.109894	0.929909
191.84	0.105499	0.930405
192.36	0.110107	0.928955
192.88	0.112396	0.929031
193.40	0.105423	0.929260
193.93	0.108521	0.929070
194.45	0.105225	0.929680
194.97	0.110977	0.928955
195.49	0.106888	0.927696
196.01	0.110397	0.929756
196.53	0.106796	0.928612
197.06	0.111841	0.929749
197.58	0.108337	0.928421
198.10	0.105331	0.927505
198.62	0.110886	0.927811
199.14	0.104858	0.926590
199.66	0.106293	0.927582
200.18	0.118011	0.928535
200.70	0.111938	0.926514
201.22	0.108398	0.927277
201.74	0.114044	0.926476
202.26	0.107605	0.926895
202.78	0.108917	0.927391
203.30	0.111481	0.926437
203.82	0.110657	0.926056
204.34	0.107544	0.926056
204.86	0.108231	0.926247
205.38	0.105118	0.926666
205.90	0.110046	0.926170
206.42	0.110245	0.925331
206.94	0.109085	0.925407
207.46	0.111465	0.924721
207.98	0.109970	0.926247
208.50	0.107513	0.925179
209.02	0.108810	0.924454
209.54	0.112579	0.925026
210.06	0.107803	0.924606
210.58	0.106262	0.925674
211.10	0.111725	0.923882
211.62	0.108200	0.924950
212.14	0.110901	0.923729
212.66	0.112076	0.925674
213.18	0.109955	0.925255
213.70	0.110901	0.924110
214.22	0.107681	0.923576
214.74	0.109589	0.923767
215.26	0.111954	0.923729
215.78	0.106644	0.924568
216.30	0.109009	0.923615
216.82	0.110855	0.922661
217.34	0.107178	0.923462
217.86	0.107132	0.921021
218.38	0.108109	0.923920
218.90	0.109406	0.923309
219.42	0.109497	0.922623
219.94	0.110046	0.923195
220.46	0.109344	0.921288
220.98	0.110672	0.922394
221.50	0.112747	0.922661
222.02	0.109955	0.921593
222.54	0.111984	0.921783
223.06	0.111801	0.921326
223.58	0.111115	0.921745
224.10	0.112030	0.921822
224.62	0.113403	0.921364
225.14	0.113205	0.921783
225.66	0.109756	0.920334
226.18	0.109039	0.921249
226.70	0.115219	0.921669
227.22	0.110870	0.920334
227.74	0.113403	0.919800
228.26	0.109955	0.920563
228.78	0.112122	0.920067
229.30	0.111160	0.921478
229.82	0.110962	0.919762
230.34	0.111877	0.919647
230.86	0.107758	0.919838
231.38	0.113373	0.920029
231.90	0.111923	0.920486
232.42	0.115219	0.920525
232.94	0.116791	0.919228
233.46	0.110214	0.919495
233.98	0.112198	0.917435
234.50	0.114685	0.919876
235.02	0.111603	0.919304
235.54	0.115814	0.918236
236.06	0.115509	0.919037
236.58	0.112462	0.918244
237.10	0.117139	0.918498
237.62	0.118088	0.919304
238.14	0.117142	0.918999
238.66	0.115036	0.917854
239.18	0.112244	0.917511
239.70	0.114639	0.917015
240.22	0.113449	0.918579
240.74	0.110367	0.917778
241.26	0.114731	0.916824
241.78	0.115524	0.917168
242.30	0.112778	0.916367
242.82	0.116089	0.917397
243.34	0.118515	0.917702
243.86	0.117035	0.916100
244.38	0.116257	0.916634
244.90	0.113251	0.916023
245.42	0.114410	0.916214
245.94	0.113876	0.916862
246.46	0.114334	0.915489
246.98	0.117432	0.916100
247.50	0.114258	0.915222
248.02	0.116547	0.915298
248.54	0.117691	0.917244
249.06	0.116333	0.915108
249.58	0.116440	0.914307
250.10	0.116760	0.914230
250.62	0.113754	0.914268
251.14	0.117889	0.915184
251.66	0.118225	0.914001
252.18	0.114288	0.914612
252.70	0.117310	0.915451
253.23	0.118973	0.914612
253.76	0.120239	0.915031
254.28	0.115967	0.913620
254.80	0.119125	0.913620
255.32	0.117844	0.913925
255.84	0.113998	0.914612
256.36	0.117981	0.912971
256.88	0.115784	0.913887
257.40	0.111603	0.913696
257.92	0.115677	0.913353
258.44	0.121597	0.913811
258.96	0.117401	0.913277
259.48	0.114258	0.913162
260.00	0.114685	0.912094
260.52	0.121689	0.913544
261.05	0.119471	0.913086
261.57	0.115677	0.912018
262.10	0.117554	0.913239
262.62	0.119980	0.912361
263.14	0.121368	0.911980
263.66	0.117081	0.912437
264.18	0.112625	0.911713
264.70	0.116699	0.912514
265.22	0.118896	0.911331
265.74	0.116211	0.912018
266.26	0.113708	0.912170
266.78	0.114136	0.911903
267.30	0.117981	0.911751
267.82	0.119308	0.910187
268.34	0.117920	0.910606
268.86	0.115814	0.911179
269.38	0.118881	0.910873
269.90	0.120148	0.910492
270.42	0.112167	0.910263
270.94	0.120148	0.909538
271.46	0.118179	0.910606
271.98	0.122101	0.910912
272.50	0.118484	0.909271
273.02	0.118210	0.909615
273.54	0.117264	0.909042
274.06	0.119537	0.909538
274.58	0.123581	0.909843
275.10	0.124222	0.909309
275.62	0.117432	0.909576
276.14	0.121124	0.907974
276.66	0.118515	0.908775
277.18	0.120071	0.910606
277.70	0.120544	0.909081
278.22	0.116348	0.908661
278.74	0.123299	0.908203
279.26	0.116116	0.907140
279.79	0.122733	0.909773
280.31	0.108276	0.909996
280.84	0.120132	0.908356
281.37	0.109650	0.908165
281.89	0.121048	0.908012
282.41	0.121597	0.908623
282.93	0.117584	0.907860
283.45	0.120605	0.907593
283.97	0.118881	0.907021
284.49	0.122620	0.907936
285.02	0.120495	0.906628
285.54	0.124741	0.907326
286.06	0.124985	0.906792
286.58	0.123505	0.906487
287.10	0.121597	0.906487
287.62	0.117798	0.907059
288.14	0.123352	0.906067
288.66	0.118805	0.905952
289.18	0.120590	0.904846
289.70	0.122528	0.906448
290.22	0.119537	0.906639
290.74	0.123581	0.905800
291.26	0.122604	0.906296
291.78	0.124603	0.906448
292.30	0.121964	0.904655
292.82	0.117325	0.905266
293.35	0.127548	0.906067
293.87	0.124146	0.904465
294.39	0.122650	0.905418
294.91	0.122635	0.904541
295.43	0.120453	0.905609
295.95	0.125992	0.904617
296.47	0.124115	0.904274
296.99	0.124634	0.904121
297.51	0.117737	0.904427
298.03	0.121307	0.904427
298.55	0.120102	0.904846
299.07	0.126999	0.904465
299.59	0.120804	0.903397
300.11	0.120270	0.903740
300.63	0.122345	0.902672
301.15	0.122330	0.905380
301.67	0.113312	0.904312
302.19	0.125992	0.903091
302.71	0.122620	0.903397
303.23	0.124100	0.903015
303.75	0.122864	0.904312
304.27	0.122299	0.903511
304.79	0.126968	0.902901
305.31	0.123840	0.903130
305.83	0.120026	0.902138
306.35	0.126556	0.902214
306.87	0.127304	0.903168
307.39	0.125198	0.902100
307.91	0.125656	0.902328
308.43	0.124481	0.901642
308.95	0.125351	0.901871
309.48	0.124115	0.902443
310.00	0.124283	0.901909
310.52	0.123871	0.901566
311.04	0.125488	0.902786
311.56	0.131973	0.901070
312.08	0.126511	0.901108
312.60	0.120453	0.900536
313.12	0.126175	0.900497
313.64	0.121170	0.902214
314.16	0.123917	0.900726
314.68	0.126389	0.900459
315.20	0.095078	0.900841
315.72	0.097809	0.899467
316.24	0.114944	0.901718
316.76	0.122986	0.900269
317.28	0.122818	0.899849
317.80	0.127167	0.900192
318.32	0.123123	0.899010
318.84	0.120712	0.900497
319.36	0.125244	0.900917
319.88	0.123566	0.900803
320.40	0.122513	0.899887
320.92	0.125061	0.899315
321.44	0.128769	0.899620
321.96	0.128036	0.899925
322.48	0.122955	0.899849
323.00	0.122787	0.899734
323.52	0.129608	0.899200
324.04	0.128632	0.898170
324.56	0.126099	0.900497
325.08	0.124527	0.899467
325.60	0.130127	0.898285
326.12	0.126801	0.898476
326.64	0.126007	0.898590
327.16	0.126938	0.899391
327.68	0.129410	0.898743
328.20	0.124786	0.897446
328.72	0.127426	0.897865
329.24	0.128098	0.897522
329.76	0.127777	0.898743
330.28	0.121490	0.898705
330.80	0.126297	0.898781
331.33	0.133843	0.899839
331.85	0.125173	0.898241
332.41	0.121535	0.897099
332.93	0.130670	0.897414
333.46	0.129017	0.897177
333.99	0.124847	0.896721
334.51	0.133537	0.896038
335.03	0.124275	0.896469
335.55	0.125793	0.895691
336.07	0.130417	0.896339
336.60	0.125549	0.896797
337.13	0.129913	0.896111
337.65	0.126892	0.897255
338.17	0.126144	0.895920
338.69	0.125244	0.896034
339.21	0.127014	0.895271
339.74	0.126572	0.894318
340.26	0.124100	0.895920
340.78	0.128067	0.895309
341.30	0.128204	0.895844
341.82	0.128342	0.896683
342.34	0.126175	0.895042
342.86	0.126938	0.895844
343.38	0.124161	0.895004
343.90	0.128465	0.895130
344.42	0.126968	0.895996
344.94	0.128098	0.895538
345.46	0.129242	0.894699
345.98	0.123840	0.894966
346.50	0.128738	0.894432
347.02	0.127640	0.895157
347.54	0.124451	0.895157
348.06	0.131226	0.894547
348.62	0.123393	0.894342
349.14	0.132339	0.895615
349.66	0.119598	0.894394
350.18	0.127609	0.893478
350.70	0.131699	0.893707
351.22	0.129623	0.894012
351.74	0.130157	0.894051
352.26	0.129959	0.893860
352.78	0.125946	0.893440
353.30	0.132309	0.893440
353.82	0.130569	0.892906
354.34	0.125977	0.894470
354.86	0.127653	0.894002
355.38	0.133072	0.893440
355.91	0.126022	0.893097
356.43	0.127472	0.891724
356.95	0.128220	0.893402
357.48	0.131149	0.892677
358.00	0.125488	0.892296
358.52	0.129089	0.893555
359.04	0.126282	0.891914
359.56	0.130544	0.892807
360.08	0.129044	0.891533
360.60	0.131119	0.892487
361.12	0.129440	0.892792
361.64	0.129578	0.892601
362.16	0.126831	0.891724
362.69	0.126205	0.892181
363.21	0.126480	0.891266
363.73	0.125870	0.891228
364.25	0.127426	0.890236
364.78	0.135400	0.889933
365.30	0.126953	0.892601
365.82	0.130676	0.890923
366.35	0.137573	0.892067
366.87	0.128265	0.891724
367.40	0.127457	0.890656
367.92	0.131531	0.890503
368.44	0.131287	0.891037
368.96	0.129639	0.890121
369.48	0.130554	0.890427
370.00	0.134155	0.890045
370.52	0.130402	0.890961
371.04	0.131546	0.891571
371.56	0.128601	0.888939
372.08	0.131790	0.889702
372.60	0.128769	0.889130
373.12	0.130020	0.889091
373.64	0.130707	0.890656
374.16	0.129913	0.890274
374.68	0.130829	0.888901
375.20	0.129288	0.889244
375.73	0.129501	0.889282
376.25	0.131485	0.889664
376.77	0.134109	0.888634
377.29	0.133728	0.888939
377.81	0.133911	0.889778
378.33	0.128754	0.888557
378.85	0.134369	0.888214
379.37	0.130402	0.888977
379.89	0.128891	0.888329
380.41	0.124298	0.889816
380.93	0.129013	0.888863
381.45	0.130890	0.888710
381.97	0.132645	0.887566
382.49	0.129608	0.888901
383.01	0.134903	0.889778
383.53	0.130676	0.887718
384.05	0.133698	0.887604
384.57	0.134201	0.887642
385.09	0.134415	0.888329
385.61	0.133331	0.888939
386.13	0.135941	0.887184
386.65	0.132004	0.887756
387.17	0.134094	0.886612
387.69	0.137909	0.887756
388.21	0.134354	0.888329
388.73	0.128036	0.887794
389.25	0.130432	0.886497
389.77	0.130524	0.887108
390.29	0.134048	0.887642
390.82	0.123871	0.887642
391.34	0.129456	0.886803
391.86	0.133682	0.886688
392.38	0.137161	0.886955
392.90	0.132523	0.886726
393.42	0.134781	0.886116
393.94	0.135742	0.885506
394.46	0.131027	0.886040
394.98	0.134155	0.887833
395.50	0.134460	0.886269
396.02	0.134445	0.885124
396.54	0.132416	0.886154
397.06	0.131729	0.885582
397.58	0.132675	0.886383
398.10	0.134277	0.885582
398.62	0.135300	0.884819
399.14	0.129913	0.885696
399.66	0.136276	0.885963
400.18	0.133728	0.886230
400.70	0.134308	0.885353
401.22	0.134079	0.884972
401.74	0.136658	0.886421
402.27	0.133286	0.884399
402.79	0.132492	0.884781
403.31	0.135223	0.883522
403.83	0.131622	0.885124
404.35	0.138657	0.883751
404.87	0.132187	0.884247
405.39	0.135422	0.884171
405.91	0.130066	0.885124
406.43	0.134186	0.884323
406.95	0.135849	0.884628
407.47	0.133911	0.883217
407.99	0.131073	0.884132
408.51	0.131485	0.885391
409.03	0.132889	0.883522
409.55	0.132950	0.883522
410.07	0.133011	0.882301
410.59	0.135406	0.883446
411.11	0.135742	0.885086
411.63	0.135956	0.883141
412.15	0.134216	0.882454
412.67	0.131821	0.882950
413.19	0.134430	0.882721
413.71	0.138672	0.884056
414.23	0.137222	0.882874
414.75	0.135223	0.882759
415.27	0.132690	0.881577
415.79	0.136414	0.882111
416.31	0.137466	0.884285
416.83	0.135101	0.880623
417.35	0.135742	0.882034
417.87	0.133194	0.881577
418.39	0.135239	0.881310
418.92	0.135437	0.883141
419.44	0.132065	0.881729
419.96	0.138458	0.882072
420.48	0.134903	0.882874
421.00	0.134750	0.881348
421.52	0.139343	0.881119
422.04	0.140274	0.881538
422.57	0.132416	0.881767
423.09	0.134384	0.881004
423.61	0.135376	0.881844
424.13	0.137695	0.881805
424.65	0.135590	0.881958
425.17	0.136475	0.880203
425.69	0.135834	0.881119
426.21	0.136490	0.879631
426.73	0.140503	0.881424
427.25	0.138382	0.881081
427.77	0.137512	0.879784
428.29	0.140656	0.881004
428.81	0.134689	0.880356
429.33	0.137466	0.880737
429.85	0.136566	0.881042
430.37	0.139313	0.878983
430.89	0.136642	0.879784
431.41	0.133835	0.879631
431.93	0.138962	0.879974
432.45	0.135513	0.880814
432.97	0.140106	0.879860
433.49	0.136490	0.880241
434.02	0.139847	0.880699
434.54	0.139954	0.879097
435.06	0.139832	0.879593
435.58	0.142700	0.879440
436.10	0.137802	0.880013
436.62	0.138779	0.880852
437.14	0.136902	0.879517
437.66	0.138840	0.878754
438.18	0.138107	0.877953
438.70	0.137466	0.878983
439.22	0.137573	0.879898
439.74	0.142227	0.880318
440.26	0.140411	0.878868
440.78	0.137863	0.880432
441.30	0.143555	0.878220
441.82	0.137405	0.879021
442.34	0.136200	0.878334
442.86	0.136780	0.877876
443.38	0.141266	0.879440
443.90	0.141251	0.878143
444.42	0.136658	0.877762
444.94	0.143341	0.877686
445.46	0.139923	0.877914
445.98	0.142380	0.879097
446.50	0.132187	0.878220
447.02	0.132095	0.877953
447.54	0.139221	0.876770
448.06	0.139648	0.877304
448.58	0.136566	0.877800
449.10	0.140289	0.878258
449.62	0.134460	0.876465
450.14	0.137421	0.877457
450.66	0.142151	0.876923
451.18	0.144119	0.877876
451.70	0.144592	0.877113
452.22	0.149246	0.875320
452.74	0.138306	0.876465
453.26	0.139191	0.876541
453.78	0.144394	0.877228
454.30	0.143021	0.876846
454.82	0.144226	0.876312
455.35	0.142914	0.875931
455.86	0.145432	0.875282
456.38	0.143494	0.876007
456.90	0.146240	0.876732
457.42	0.143982	0.875397
457.94	0.142136	0.875320
458.46	0.141281	0.874481
458.98	0.141098	0.873795
459.50	0.144318	0.875320
460.02	0.145554	0.873795
460.54	0.142456	0.873985
461.06	0.140274	0.874062
461.58	0.141632	0.873375
462.10	0.144852	0.874901
462.62	0.141602	0.874290
463.14	0.141571	0.872841
463.66	0.148346	0.873566
464.18	0.144592	0.872307
464.70	0.145294	0.874634
465.22	0.144775	0.874367
465.74	0.146957	0.872765
466.26	0.145096	0.872078
466.78	0.145370	0.871735
467.30	0.146469	0.872421
467.82	0.145309	0.873260
468.34	0.149734	0.871582
468.86	0.146790	0.871315
469.38	0.147461	0.870934
469.90	0.147690	0.871506
470.42	0.148422	0.872231
470.95	0.147583	0.870819
471.47	0.145432	0.871048
471.99	0.146988	0.870552
472.51	0.146347	0.870056
473.03	0.149261	0.870132
473.55	0.148041	0.869255
474.07	0.148972	0.870018
474.59	0.149445	0.870667
475.11	0.144374	0.869180
475.63	0.149612	0.869865
476.16	0.141968	0.869141
476.68	0.140762	0.868378
477.20	0.150650	0.868645
477.72	0.144831	0.868077
478.24	0.147797	0.867920
478.76	0.148407	0.869408
479.28	0.144653	0.867348
479.80	0.152420	0.867310
480.32	0.150055	0.867615
480.84	0.144531	0.867004
481.36	0.152283	0.868301
481.88	0.153915	0.866814
482.40	0.151978	0.866699
482.92	0.151108	0.866585
483.44	0.152740	0.866318
483.96	0.152908	0.867348
484.48	0.150253	0.866814
485.00	0.155182	0.866318
485.52	0.154938	0.865746
486.04	0.151047	0.865250
486.56	0.153564	0.866737
487.08	0.151230	0.864754
487.60	0.155411	0.864220
488.13	0.154770	0.864868
488.65	0.145172	0.863991
489.17	0.154312	0.864601
489.69	0.154068	0.863190
490.22	0.147217	0.862846
490.74	0.154434	0.862770
491.26	0.153519	0.862274
491.78	0.148132	0.863304
492.30	0.149109	0.863609
492.82	0.156082	0.863037
493.34	0.150238	0.862503
493.86	0.157089	0.863075
494.38	0.155624	0.862236
494.90	0.154449	0.862885
495.42	0.152710	0.861816
495.94	0.153412	0.862312
496.46	0.149506	0.860710
496.98	0.154266	0.860558
497.50	0.156281	0.860786
498.03	0.154022	0.859489
498.55	0.153168	0.859528
499.07	0.155045	0.859604
499.59	0.153412	0.859032
500.11	0.155640	0.860901
500.63	0.157150	0.859375
501.15	0.148804	0.858536
501.67	0.156158	0.858574
502.19	0.156570	0.857964
502.71	0.155701	0.858803
503.23	0.156509	0.858040
503.75	0.156952	0.857849
504.28	0.161743	0.857315
504.80	0.154053	0.856781
505.32	0.154083	0.856819
505.84	0.153381	0.855751
506.36	0.155075	0.857353
506.88	0.153275	0.856514
507.40	0.155548	0.856056
507.92	0.158020	0.855827
508.44	0.156830	0.855713
508.96	0.156036	0.855980
509.48	0.158218	0.856094
510.00	0.160736	0.854568
510.52	0.155838	0.854568
511.04	0.155899	0.853539
511.56	0.158234	0.854683
512.08	0.159500	0.854340
512.60	0.159546	0.853844
513.13	0.156418	0.852814
513.65	0.162125	0.854263
514.17	0.161774	0.853195
514.69	0.158752	0.852509
515.21	0.159195	0.852470
515.73	0.160156	0.853386
516.25	0.158737	0.851784
516.77	0.158844	0.851974
517.29	0.162872	0.850449
517.81	0.155853	0.851173
518.33	0.163437	0.850983
518.85	0.164963	0.850143
519.37	0.163376	0.849915
519.90	0.163498	0.850105
520.42	0.163025	0.849228
520.94	0.161301	0.850372
521.46	0.153931	0.849190
521.98	0.160522	0.848389
522.50	0.159012	0.848465
523.02	0.158112	0.848083
523.54	0.161438	0.849495
524.07	0.160934	0.848770
524.59	0.166412	0.847130
525.11	0.164062	0.847931
525.63	0.164124	0.846977
526.15	0.166443	0.846672
526.67	0.163605	0.846634
527.20	0.156452	0.846116
527.72	0.159378	0.844650
528.24	0.164581	0.844803
528.76	0.168137	0.846519
529.28	0.163498	0.845528
529.80	0.166351	0.844307
530.32	0.169403	0.844879
530.84	0.164383	0.844154
531.36	0.170334	0.844955
531.88	0.161987	0.842819
532.40	0.164093	0.843925
532.92	0.168900	0.842781
533.44	0.169510	0.843315
533.96	0.164993	0.844231
534.48	0.163940	0.841980
535.00	0.163696	0.842209
535.52	0.166336	0.841179
536.04	0.166489	0.840569
536.56	0.165588	0.842438
537.08	0.163284	0.840073
537.60	0.165558	0.840187
538.12	0.163086	0.839767
538.64	0.162766	0.839844
539.16	0.163315	0.840492
539.68	0.167877	0.839729
540.20	0.163361	0.839272
540.72	0.166656	0.838432
541.24	0.168121	0.839729
541.76	0.169434	0.839424
542.28	0.171310	0.838623
542.80	0.169998	0.837822
543.32	0.163361	0.837593
543.84	0.170334	0.838547
544.36	0.170105	0.838661
544.88	0.161896	0.837135
545.40	0.173950	0.835876
545.92	0.165665	0.835381
546.45	0.170212	0.836945
546.97	0.164108	0.836678
547.49	0.175461	0.835724
548.01	0.167801	0.836258
548.53	0.163834	0.834656
549.05	0.172653	0.834885
549.57	0.168945	0.834122
550.09	0.168365	0.833969
550.61	0.170517	0.834999
551.13	0.167908	0.833855
551.65	0.176895	0.834160
552.17	0.167847	0.831795
552.69	0.171738	0.833359
553.21	0.177856	0.833168
553.73	0.174622	0.832253
554.25	0.177109	0.832100
554.77	0.172119	0.831833
555.29	0.170822	0.832748
555.81	0.174408	0.832710
556.33	0.167419	0.830765
556.85	0.174866	0.830917
557.37	0.177170	0.829849
557.89	0.169052	0.830765
558.41	0.176285	0.831070
558.93	0.175171	0.830040
559.45	0.170898	0.829659
559.97	0.172745	0.829239
560.50	0.173615	0.829620
561.02	0.175644	0.828552
561.54	0.176529	0.828056
562.06	0.174759	0.829468
562.58	0.174667	0.827293
563.10	0.172470	0.827675
563.62	0.177948	0.827026
564.14	0.171616	0.827026
564.66	0.173004	0.828590
565.18	0.175125	0.827065
565.70	0.175690	0.827370
566.22	0.164856	0.825691
566.74	0.177292	0.825996
567.26	0.176407	0.827179
567.78	0.174225	0.825195
568.30	0.176331	0.825462
568.82	0.169357	0.824623
569.34	0.173447	0.823746
569.86	0.175476	0.825577
570.38	0.179504	0.823898
570.90	0.181549	0.822906
571.42	0.177261	0.822830
571.94	0.173401	0.823097
572.46	0.177414	0.823288
572.98	0.180618	0.821953
573.50	0.173584	0.823250
574.02	0.171906	0.822983
574.54	0.177658	0.821609
575.06	0.176834	0.821991
575.58	0.178757	0.820274
576.10	0.176102	0.821419
576.62	0.177612	0.821114
577.15	0.175522	0.820312
577.66	0.180176	0.820465
578.18	0.175049	0.819206
578.70	0.175629	0.821037
579.22	0.183838	0.820045
579.74	0.177704	0.818939
580.27	0.180420	0.819283
580.79	0.175476	0.818291
581.31	0.176407	0.817337
581.83	0.178101	0.816765
582.35	0.174652	0.817909
582.87	0.180542	0.817299
583.39	0.182419	0.816078
583.91	0.178207	0.816307
584.43	0.181381	0.815201
584.95	0.181610	0.816879
585.47	0.180405	0.816612
585.99	0.176117	0.814400
586.51	0.170029	0.815811
587.03	0.182343	0.814438
587.55	0.176895	0.814743
588.07	0.184174	0.815125
588.59	0.185562	0.814552
589.11	0.180389	0.814018
589.63	0.182159	0.813255
590.15	0.187469	0.814018
590.67	0.181427	0.813904
591.19	0.176788	0.811920
591.71	0.182068	0.811958
592.23	0.184509	0.811844
592.75	0.185501	0.813675
593.27	0.185486	0.811462
593.79	0.182022	0.810814
594.31	0.182922	0.809441
594.83	0.179718	0.810890
595.35	0.189407	0.812187
595.87	0.184509	0.810051
596.39	0.182144	0.808983
596.91	0.189117	0.808640
597.43	0.184143	0.808220
597.95	0.183594	0.810051
598.47	0.184769	0.808525
598.99	0.187027	0.808029
599.51	0.181183	0.807877
600.03	0.190964	0.808411
600.55	0.186661	0.808830
601.07	0.181396	0.807037
601.59	0.183105	0.806770
602.11	0.183365	0.806198
602.63	0.186111	0.806465
603.15	0.182312	0.806503
603.67	0.180405	0.805206
604.19	0.184372	0.804977
604.71	0.185837	0.805511
605.23	0.183807	0.805206
605.75	0.186615	0.805016
606.27	0.191040	0.803719
606.79	0.187134	0.802765
607.31	0.188644	0.803757
607.83	0.193802	0.804787
608.35	0.185226	0.803909
608.87	0.186859	0.803032
609.39	0.186142	0.802345
609.91	0.192917	0.803185
610.43	0.187988	0.803719
610.95	0.189316	0.803032
611.47	0.183533	0.802155
611.99	0.189667	0.801506
612.51	0.192062	0.801086
613.03	0.195084	0.801620
613.55	0.185150	0.800476
614.07	0.188293	0.801201
614.59	0.193466	0.799713
615.11	0.183990	0.799828
615.63	0.188828	0.800438
616.15	0.193207	0.799026
616.67	0.189407	0.799217
617.19	0.184464	0.798492
617.72	0.197617	0.797348
618.24	0.188583	0.798073
618.76	0.189758	0.797386
619.28	0.194733	0.798836
619.80	0.198242	0.798264
620.32	0.184616	0.796394
620.84	0.187927	0.797348
621.36	0.192184	0.795746
621.88	0.194611	0.795898
622.40	0.194183	0.796814
622.92	0.187225	0.796051
623.44	0.190170	0.794640
623.96	0.191559	0.794792
624.48	0.188202	0.796165
625.00	0.189987	0.794945
625.52	0.189209	0.794067
626.04	0.180435	0.793533
626.56	0.191895	0.793114
627.08	0.193619	0.794182
627.60	0.191818	0.793457
628.12	0.189651	0.792542
628.64	0.188492	0.792351
629.16	0.193024	0.791969
629.68	0.184937	0.793266
630.20	0.199478	0.792465
630.72	0.186081	0.791588
631.24	0.196304	0.790443
631.76	0.189713	0.790672
632.28	0.197372	0.791740
632.80	0.193253	0.790253
633.32	0.191803	0.789299
633.84	0.196533	0.790405
634.36	0.196823	0.788498
634.88	0.194031	0.790939
635.41	0.189223	0.788215
635.94	0.193580	0.787708
636.46	0.198288	0.787849
636.98	0.193665	0.788002
637.50	0.192780	0.788803
638.02	0.198486	0.787888
638.54	0.190689	0.786972
639.06	0.196060	0.785675
639.58	0.196823	0.785751
640.10	0.189484	0.787888
640.62	0.196793	0.786629
641.14	0.191071	0.785637
641.66	0.196518	0.786133
642.18	0.197495	0.785751
642.70	0.196106	0.785637
643.22	0.194763	0.784111
643.74	0.199219	0.783310
644.27	0.196487	0.784721
644.78	0.196259	0.783615
645.30	0.202957	0.783997
645.82	0.196869	0.782547
646.34	0.189758	0.783615
646.86	0.204010	0.783234
647.39	0.192459	0.782394
647.91	0.194824	0.782394
648.43	0.191208	0.783234
648.94	0.201874	0.783234
649.46	0.202850	0.782318
649.98	0.200241	0.781822
650.50	0.201141	0.780716
651.03	0.201216	0.778476
651.56	0.207992	0.782234
652.09	0.198273	0.778809
652.61	0.202469	0.780525
653.13	0.199493	0.780602
653.66	0.201416	0.780233
654.18	0.204215	0.779744
654.71	0.200130	0.778117
655.23	0.201355	0.777855
655.76	0.204712	0.779228
656.29	0.194319	0.777251
656.82	0.204056	0.777817
657.34	0.201294	0.778198
657.86	0.196259	0.777626
658.38	0.200912	0.778389
658.90	0.197372	0.775337
659.42	0.200211	0.776367
659.94	0.202026	0.778122
660.46	0.203140	0.776901
660.98	0.202271	0.775757
661.51	0.204239	0.775871
662.03	0.197250	0.774384
662.55	0.191605	0.775337
663.07	0.202026	0.773735
663.59	0.204346	0.775833
664.11	0.197800	0.774231
664.63	0.199066	0.774078
665.15	0.211380	0.772362
665.67	0.200623	0.772896
666.19	0.202240	0.774117
666.71	0.201065	0.773659
667.24	0.228705	0.773099
667.76	0.205231	0.774193
668.28	0.189697	0.771942
668.81	0.189499	0.771408
669.33	0.190088	0.771444
669.85	0.203552	0.771179
670.38	0.197403	0.770645
670.90	0.202942	0.771179
671.42	0.200119	0.771828
671.94	0.201965	0.769730
672.46	0.200775	0.769806
672.98	0.201202	0.771179
673.50	0.208631	0.771021
674.02	0.209945	0.768610
674.54	0.201645	0.768814
675.06	0.202713	0.767517
675.58	0.206436	0.767670
676.10	0.203094	0.767441
676.62	0.199493	0.767822
677.15	0.206604	0.766792
677.67	0.210373	0.766411
678.19	0.213455	0.769043
678.71	0.212219	0.767441
679.23	0.206314	0.765533
679.75	0.200653	0.765533
680.27	0.213852	0.765610
680.79	0.203506	0.766716
681.31	0.201141	0.766830
681.83	0.205536	0.765152
682.35	0.205322	0.764732
682.87	0.205246	0.764503
683.40	0.217224	0.765305
683.93	0.210247	0.764034
684.45	0.202042	0.764160
684.97	0.212009	0.763254
685.49	0.205093	0.763512
686.01	0.207962	0.764580
686.53	0.216599	0.764351
687.05	0.206039	0.761986
687.57	0.213745	0.762672
688.09	0.212631	0.761948
688.61	0.208618	0.762329
689.13	0.207397	0.762901
689.65	0.213058	0.760918
690.18	0.210270	0.761882
690.70	0.211731	0.761528
691.22	0.210205	0.760117
691.74	0.212051	0.759468
692.26	0.205353	0.760117
692.78	0.199768	0.761528
693.30	0.213104	0.760612
693.82	0.213104	0.759773
694.34	0.206238	0.758286
694.86	0.211700	0.758743
695.38	0.217056	0.759888
695.90	0.211182	0.758057
696.42	0.210678	0.756721
696.94	0.213440	0.756950
697.46	0.211746	0.757179
697.98	0.211777	0.758705
698.50	0.212814	0.757866
699.02	0.207718	0.755272
699.54	0.216415	0.756226
700.06	0.213287	0.754776
700.58	0.213303	0.756035
701.10	0.212219	0.756950
701.62	0.209396	0.754929
702.14	0.219223	0.754852
702.66	0.214447	0.754623
703.18	0.212585	0.756531
703.70	0.216476	0.755730
704.22	0.211502	0.753899
704.74	0.221313	0.752945
705.26	0.221390	0.752220
705.78	0.210709	0.754166
706.30	0.205582	0.754547
706.82	0.220490	0.752945
707.34	0.214890	0.752296
707.86	0.213440	0.751724
708.38	0.211090	0.751686
708.90	0.215714	0.751877
709.42	0.216019	0.752068
709.94	0.213303	0.751038
710.46	0.214508	0.751381
710.98	0.205688	0.750313
711.50	0.213898	0.750961
712.02	0.215530	0.750389
712.54	0.207916	0.749550
713.06	0.214813	0.748940
713.58	0.214157	0.749016
714.10	0.211777	0.749664
714.62	0.221237	0.750084
715.14	0.220939	0.747618
715.66	0.220089	0.747897
716.19	0.210055	0.747858
716.71	0.225065	0.746826
717.39	0.211100	0.749308
718.03	0.217867	0.747587
718.55	0.221405	0.746880
719.07	0.219360	0.746422
719.59	0.219009	0.745926
720.11	0.220123	0.744820
720.64	0.215775	0.746002
721.16	0.218388	0.744983
721.69	0.225885	0.742187
722.21	0.219315	0.744362
722.73	0.211349	0.743866
723.25	0.214279	0.744362
723.77	0.212296	0.744972
724.29	0.215469	0.744781
724.81	0.214035	0.742722
725.33	0.207870	0.743141
725.85	0.218750	0.740852
726.37	0.226120	0.742416
726.89	0.219009	0.743484
727.41	0.210464	0.742836
727.93	0.222351	0.741425
728.45	0.216034	0.740700
728.98	0.211930	0.740641
729.50	0.212072	0.742384
730.02	0.221695	0.740416
730.56	0.222015	0.739555
731.07	0.216561	0.738652
731.59	0.219629	0.740275
732.11	0.228302	0.738754
732.63	0.229218	0.738411
733.15	0.213440	0.738144
733.67	0.216751	0.738754
734.19	0.219223	0.740051
734.71	0.225632	0.739212
735.24	0.223145	0.738411
735.76	0.224335	0.739555
736.28	0.219254	0.737801
736.80	0.220688	0.736732
737.33	0.222824	0.736694
737.86	0.213730	0.737724
738.38	0.220978	0.736237
738.90	0.235336	0.738840
739.42	0.219745	0.736084
739.94	0.217969	0.736287
740.46	0.228532	0.737467
740.99	0.225684	0.736979
741.51	0.223633	0.735493
742.04	0.229297	0.734090
742.57	0.215080	0.733603
743.09	0.217985	0.731323
743.61	0.230437	0.732855
744.13	0.223286	0.733643
744.66	0.227901	0.731752
745.18	0.222900	0.733376
745.70	0.226257	0.734520
746.22	0.224289	0.732422
746.74	0.223969	0.732536
747.26	0.225388	0.732117
747.78	0.230835	0.733730
748.31	0.224792	0.729485
748.83	0.225854	0.732146
749.35	0.209778	0.732574
749.87	0.229843	0.731125
750.39	0.214493	0.731239
750.92	0.217965	0.729021
751.45	0.226484	0.729154
751.97	0.228134	0.730247
752.49	0.221711	0.731792
753.02	0.223328	0.729637
753.54	0.226822	0.731354
754.06	0.226944	0.730629
754.58	0.228653	0.728912
755.12	0.230412	0.728713
755.64	0.230485	0.729587
756.16	0.217773	0.726929
756.68	0.226421	0.726673
757.21	0.229870	0.727933
757.73	0.221313	0.727005
758.25	0.230255	0.726852
758.77	0.229263	0.726051
759.30	0.225732	0.727458
759.82	0.224919	0.726766
760.35	0.238449	0.724869
760.87	0.225250	0.727615
761.40	0.217080	0.726200
761.93	0.231820	0.725952
762.45	0.223969	0.725021
762.97	0.217529	0.723877
763.49	0.220057	0.723838
764.02	0.223602	0.725861
764.54	0.233740	0.725586
765.06	0.235458	0.723534
765.59	0.215544	0.725464
766.14	0.231745	0.723523
766.66	0.227966	0.722580
767.18	0.221680	0.724487
767.70	0.229065	0.723686
768.22	0.220215	0.723190
768.74	0.221176	0.724349
769.26	0.224960	0.723076
769.79	0.229083	0.722144
770.31	0.229828	0.723152
770.83	0.231293	0.721512
771.35	0.224335	0.721703
771.87	0.232697	0.720673
772.39	0.230255	0.719948
772.91	0.226657	0.721790
773.43	0.218185	0.720749
773.95	0.237457	0.719528
774.47	0.228405	0.719034
774.99	0.229111	0.719681
775.51	0.229645	0.721092
776.03	0.229874	0.720749
776.57	0.232138	0.718128
777.10	0.227634	0.719230
777.62	0.230408	0.719795
778.14	0.234756	0.718231
778.66	0.237396	0.717659
779.18	0.235107	0.716400
779.70	0.224919	0.716227
780.22	0.227341	0.717621
780.74	0.232315	0.715828
781.26	0.224515	0.717813
781.78	0.226013	0.718956
782.31	0.238234	0.715883
782.83	0.232404	0.717730
783.35	0.231445	0.717468
783.87	0.231871	0.714544
784.39	0.239594	0.715141
784.91	0.238754	0.714645
785.43	0.235291	0.714989
785.95	0.233826	0.717506
786.47	0.219391	0.715218
786.99	0.241074	0.714531
787.51	0.239914	0.714607
788.03	0.239227	0.713615
788.55	0.231796	0.714035
789.07	0.232452	0.714111
789.59	0.231049	0.713425
790.11	0.229004	0.713692
790.63	0.236298	0.711899
791.15	0.238586	0.714340
791.67	0.241150	0.715065
792.19	0.224838	0.713196
792.71	0.232605	0.711441
793.23	0.229996	0.712585
793.75	0.241104	0.711060
794.27	0.233185	0.713234
794.79	0.230499	0.712090
795.31	0.230072	0.711098
795.83	0.242172	0.710983
796.35	0.238983	0.711021
796.87	0.235184	0.711670
797.39	0.242783	0.710945
797.91	0.237885	0.711098
798.43	0.227997	0.709991
798.95	0.244482	0.707682
799.47	0.236649	0.709877
799.99	0.234421	0.710945
800.51	0.237885	0.708809
801.03	0.238220	0.708351
801.55	0.239227	0.708618
802.07	0.239685	0.706940
802.59	0.235016	0.709038
803.11	0.242584	0.708923
803.63	0.232880	0.708351
804.15	0.242090	0.707926
804.67	0.235367	0.707436
805.22	0.237994	0.705351
805.74	0.235733	0.705757
806.26	0.233963	0.706482
806.78	0.235245	0.706673
807.30	0.252487	0.708466
807.82	0.236740	0.706367
808.34	0.239395	0.706100
808.86	0.236877	0.705032
809.38	0.238907	0.705566
809.90	0.248886	0.706482
810.42	0.239044	0.705605
810.94	0.239197	0.705910
811.46	0.237488	0.703964
811.98	0.235931	0.703392
812.50	0.238968	0.704803
813.02	0.234634	0.706139
813.54	0.252762	0.702400
814.06	0.240768	0.703850
814.58	0.242569	0.704041
815.10	0.237564	0.703468
815.62	0.236267	0.703087
816.14	0.250183	0.703201
816.66	0.240997	0.702438
817.19	0.240817	0.702377
817.71	0.228424	0.701904
818.23	0.221054	0.701027
818.75	0.238403	0.703201
819.27	0.250397	0.703011
819.79	0.248978	0.701141
820.31	0.244659	0.701447
820.83	0.237930	0.699844
821.35	0.243439	0.701981
821.87	0.248596	0.700722
822.39	0.240662	0.700226
822.91	0.252289	0.700111
823.43	0.246658	0.699654
823.95	0.245682	0.699081
824.47	0.245331	0.701942
824.99	0.243484	0.699158
825.51	0.247467	0.699501
826.03	0.244965	0.698166
826.55	0.241013	0.698471
827.07	0.238434	0.698776
827.60	0.240860	0.697861
828.12	0.239029	0.699005
828.64	0.242599	0.700264
829.16	0.251984	0.698891
829.68	0.242203	0.697174
830.20	0.240387	0.696640
830.72	0.241364	0.696182
831.24	0.239761	0.696983
831.76	0.233948	0.697594
832.28	0.241745	0.695953
832.80	0.247620	0.696487
833.32	0.244080	0.695190
833.84	0.242111	0.695381
834.36	0.245453	0.696602
834.88	0.247330	0.695000
835.40	0.242859	0.694351
835.92	0.243210	0.693398
836.44	0.240524	0.693970
836.96	0.245895	0.695114
837.48	0.239410	0.694847
838.00	0.218155	0.694656
838.52	0.237930	0.693092
839.04	0.257477	0.692253
839.56	0.250519	0.693169
840.08	0.245331	0.695648
840.60	0.247177	0.693054
841.12	0.245224	0.692940
841.64	0.258682	0.692787
842.16	0.250458	0.693092
842.68	0.225922	0.693932
843.20	0.263580	0.692596
843.72	0.247467	0.691566
844.24	0.250763	0.691109
844.76	0.255997	0.691185
845.28	0.248978	0.691948
845.80	0.242996	0.691414
846.32	0.248367	0.690041
846.84	0.249527	0.690765
847.36	0.248398	0.690155
847.88	0.245911	0.691376
848.40	0.226257	0.691299
848.92	0.256577	0.689507
849.44	0.258347	0.688477
849.96	0.251236	0.687485
850.48	0.245850	0.688553
851.00	0.248306	0.690269
851.52	0.245041	0.689087
852.04	0.249954	0.688820
852.56	0.255066	0.687523
853.08	0.243729	0.687256
853.60	0.253784	0.688858
854.12	0.247833	0.689049
854.64	0.244827	0.687637
855.16	0.235107	0.687103
855.68	0.255295	0.686531
856.20	0.246368	0.687218
856.72	0.242416	0.687027
857.24	0.251572	0.685959
857.76	0.249222	0.686684
858.28	0.241226	0.686035
858.80	0.249680	0.687027
859.32	0.248123	0.686569
859.84	0.244080	0.682793
860.36	0.239563	0.684662
860.88	0.257095	0.684357
861.40	0.249069	0.685425
861.92	0.235397	0.685768
862.44	0.257034	0.684013
862.96	0.261536	0.684280
863.48	0.243790	0.684090
864.00	0.243622	0.684700
864.52	0.252258	0.684967
865.04	0.255173	0.683441
865.56	0.246735	0.683479
866.08	0.254547	0.681915
866.60	0.250641	0.683136
867.12	0.265442	0.683937
867.64	0.262146	0.682487
868.16	0.252579	0.681992
868.68	0.243698	0.681572
869.20	0.256393	0.681000
869.72	0.239304	0.683479
870.24	0.270111	0.683022
870.76	0.275284	0.680084
871.28	0.252350	0.680962
871.80	0.257492	0.678902
872.32	0.258011	0.681038
872.84	0.253952	0.682297
873.36	0.250854	0.680771
873.88	0.257843	0.679016
874.40	0.253632	0.679131
874.92	0.260605	0.681038
875.44	0.246002	0.681038
875.96	0.248550	0.681343
876.48	0.268326	0.678291
877.00	0.247055	0.678062
877.52	0.265671	0.678062
878.04	0.258469	0.679893
878.56	0.262466	0.678902
879.08	0.254303	0.678101
879.60	0.260712	0.677795
880.12	0.251511	0.677528
880.64	0.237503	0.677376
881.17	0.263275	0.676498
881.69	0.252136	0.676460
882.21	0.243439	0.678520
882.74	0.231308	0.675774
883.26	0.253159	0.677452
883.78	0.251404	0.678444
884.30	0.261658	0.676041
884.82	0.265213	0.676003
885.34	0.247162	0.675125
885.86	0.247009	0.675087
886.38	0.268158	0.677414
886.90	0.262909	0.675507
887.42	0.250992	0.674324
887.94	0.260193	0.673828
888.46	0.268967	0.673828
888.98	0.255753	0.675087
889.50	0.257233	0.675774
890.02	0.262589	0.674667
890.54	0.265701	0.674057
891.06	0.252747	0.672112
891.58	0.257370	0.674095
892.10	0.256104	0.675583
892.62	0.259018	0.673409
893.14	0.245392	0.673409
893.66	0.268372	0.671997
894.18	0.262436	0.673065
894.70	0.262909	0.673904
895.22	0.265564	0.672264
895.74	0.253342	0.671539
896.26	0.273178	0.673027
896.78	0.268036	0.671158
897.30	0.253876	0.671844
897.82	0.258514	0.672836
898.34	0.266907	0.671005
898.86	0.259308	0.670319
899.38	0.247131	0.669708
899.90	0.251236	0.671082
900.42	0.259506	0.672073
900.94	0.260376	0.670586
901.46	0.265717	0.669785
901.98	0.258606	0.670013
902.50	0.263947	0.670280
903.02	0.265625	0.670662
903.54	0.262375	0.668640
904.06	0.256500	0.669594
904.58	0.256912	0.669403
905.10	0.260742	0.667343
905.62	0.239349	0.668869
906.14	0.253067	0.668678
906.66	0.256424	0.667610
907.18	0.253479	0.668640
907.70	0.271774	0.667000
908.22	0.265472	0.668182
908.74	0.265396	0.668945
909.26	0.264587	0.666656
909.78	0.261978	0.667496
910.30	0.255722	0.666122
910.82	0.258896	0.666847
911.34	0.253296	0.668030
911.86	0.257141	0.666847
912.38	0.267899	0.665932
912.90	0.262894	0.665588
913.42	0.245758	0.665627
913.94	0.269608	0.667038
914.46	0.265869	0.666046
914.98	0.266281	0.664749
915.50	0.269409	0.664062
916.02	0.264236	0.663719
916.54	0.265854	0.665512
917.06	0.276093	0.664787
917.58	0.260681	0.663490
918.10	0.244125	0.664215
918.62	0.259201	0.662537
919.14	0.264633	0.663986
919.66	0.270065	0.664749
920.18	0.253021	0.663528
920.70	0.256882	0.662346
921.22	0.263458	0.661736
921.74	0.266815	0.662460
922.26	0.263275	0.664253
922.78	0.259277	0.663528
923.30	0.273712	0.661621
923.82	0.257599	0.660477
924.34	0.274628	0.660400
924.86	0.261429	0.663452
925.38	0.258011	0.662460
925.90	0.278885	0.661125
926.42	0.266663	0.660172
926.94	0.273376	0.660782
927.46	0.268600	0.662422
927.98	0.277771	0.661163
928.50	0.263107	0.659866
929.02	0.262543	0.660248
929.54	0.256592	0.658913
930.06	0.272491	0.660477
930.58	0.271820	0.660172
931.10	0.273483	0.659142
931.62	0.265305	0.659904
932.14	0.265961	0.658264
932.66	0.257950	0.659370
933.18	0.266251	0.660782
933.70	0.268005	0.657883
934.22	0.268478	0.657539
934.74	0.265854	0.657387
935.26	0.275116	0.658188
935.78	0.273849	0.659447
936.30	0.265549	0.657997
936.82	0.267807	0.656662
937.34	0.270950	0.655403
937.86	0.270920	0.656509
938.38	0.266068	0.658264
938.90	0.275101	0.657272
939.42	0.258667	0.658188
939.94	0.263336	0.656815
940.46	0.277176	0.655937
940.98	0.272522	0.654945
941.50	0.277466	0.655746
942.02	0.256363	0.657196
942.54	0.275177	0.656891
943.06	0.265121	0.655327
943.58	0.266342	0.655670
944.10	0.255966	0.653343
944.63	0.271881	0.654869
945.15	0.260956	0.657043
945.66	0.264709	0.654297
946.18	0.280655	0.653648
946.70	0.262909	0.652466
947.22	0.266815	0.652924
947.74	0.273178	0.655403
948.26	0.265793	0.654221
948.78	0.265564	0.652428
949.30	0.274277	0.652771
949.82	0.257874	0.653000
950.34	0.268188	0.654144
950.86	0.264526	0.653343
951.38	0.277786	0.652275
951.90	0.279480	0.651512
952.42	0.270050	0.652618
952.95	0.274918	0.651970
953.47	0.282227	0.651550
953.99	0.261566	0.651016
954.51	0.273544	0.653572
955.03	0.279922	0.650787
955.55	0.269287	0.650978
956.07	0.275818	0.649529
956.59	0.280487	0.650482
957.11	0.282684	0.652504
957.63	0.263718	0.650558
958.15	0.255936	0.649643
958.67	0.280029	0.649719
959.19	0.276169	0.649033
959.71	0.274277	0.651093
960.23	0.266357	0.650558
960.75	0.266983	0.648384
961.27	0.283386	0.648918
961.79	0.265182	0.648193
962.31	0.274841	0.650063
962.83	0.288391	0.648766
963.35	0.261780	0.648460
963.87	0.266006	0.648003
964.39	0.265717	0.647278
964.91	0.271881	0.647697
965.43	0.276154	0.648994
965.95	0.272842	0.647316
966.47	0.255096	0.647125
967.00	0.285339	0.648384
967.52	0.280548	0.646248
968.04	0.279327	0.646629
968.56	0.283508	0.647011
969.08	0.267624	0.646896
969.60	0.271240	0.647392
970.12	0.283203	0.646095
970.64	0.288879	0.645180
971.17	0.276855	0.646667
971.69	0.282104	0.646019
972.21	0.280807	0.645981
972.73	0.277527	0.644188
973.25	0.283936	0.646172
973.77	0.279953	0.646400
974.29	0.284714	0.643768
974.81	0.264481	0.645027
975.33	0.283310	0.643044
975.85	0.275406	0.644073
976.37	0.281479	0.645790
976.89	0.273727	0.644379
977.41	0.253143	0.643158
977.93	0.274414	0.643044
978.45	0.261780	0.643845
978.97	0.277466	0.643616
979.49	0.250122	0.643806
980.01	0.279709	0.642090
980.53	0.284225	0.642166
981.05	0.284622	0.642281
981.57	0.287506	0.643044
982.09	0.269424	0.643387
982.61	0.287048	0.641556
983.13	0.282196	0.641327
983.65	0.287262	0.642395
984.17	0.254761	0.642319
984.69	0.270798	0.642357
985.21	0.278534	0.640869
985.73	0.282776	0.640259
986.25	0.282684	0.640640
986.77	0.292099	0.639648
987.29	0.285950	0.642319
987.81	0.257217	0.640831
988.33	0.275040	0.638809
988.85	0.268478	0.639992
989.37	0.282608	0.639839
989.89	0.283844	0.640373
990.41	0.284729	0.639725
990.93	0.288162	0.638046
991.45	0.274826	0.638046
991.97	0.280319	0.637856
992.49	0.286819	0.638046
993.01	0.274292	0.639305
993.53	0.283127	0.638084
994.05	0.282303	0.637817
994.57	0.285431	0.635757
995.09	0.292465	0.637283
995.61	0.280884	0.638809
996.13	0.287643	0.637894
996.65	0.264923	0.637474
997.17	0.280533	0.636177
997.69	0.280701	0.638351
998.21	0.287613	0.638695
998.73	0.274399	0.637169
999.25	0.289291	0.636253
999.77	0.284500	0.636559
1000.29	0.288773	0.635719
1000.81	0.286682	0.638123
1001.34	0.281113	0.635757
1001.86	0.281204	0.635376
1002.38	0.282181	0.636368
1002.90	0.288010	0.635071
1003.42	0.279129	0.634537
1003.94	0.281052	0.633316
1004.46	0.279510	0.634308
1004.98	0.273346	0.636482
1005.50	0.286804	0.635033
1006.02	0.271057	0.634117
1006.54	0.285767	0.633469
1007.06	0.291672	0.632820
1007.58	0.284134	0.635452
1008.10	0.288223	0.633812
1008.62	0.290604	0.633278
1009.14	0.280014	0.633087
1009.66	0.289383	0.632019
1010.18	0.267212	0.633202
1010.70	0.282822	0.633659
1011.22	0.289719	0.632324
1011.74	0.270782	0.632668
1012.26	0.292206	0.630379
1012.78	0.287933	0.633621
1013.30	0.285034	0.632935
1013.82	0.280457	0.632057
1014.34	0.280762	0.630646
1014.86	0.265305	0.631332
1015.38	0.301392	0.631981
1015.90	0.289154	0.630531
1016.42	0.256210	0.631142
1016.94	0.275162	0.630226
1017.46	0.283524	0.628700
1017.98	0.253891	0.629845
1018.50	0.253891	0.631409
1019.02	0.256149	0.630035
1019.54	0.249069	0.629845
1020.06	0.277206	0.627594
1020.58	0.290298	0.629616
1021.10	0.253387	0.630760
1021.62	0.261078	0.628700
1022.14	0.287888	0.630836
1022.66	0.263336	0.629425
1023.18	0.246780	0.628777
1023.70	0.271591	0.627708
1024.22	0.260651	0.627899
1024.74	0.279663	0.630913
1025.26	0.279739	0.628510
1025.78	0.283066	0.628319
1026.30	0.270706	0.626984
1026.82	0.279083	0.627899
1027.34	0.288086	0.629387
1027.86	0.280457	0.627632
1028.38	0.294159	0.626755
1028.90	0.282730	0.626106
1029.42	0.257874	0.626259
1029.94	0.294205	0.627632
1030.46	0.296951	0.626526
1030.98	0.288651	0.625916
1031.50	0.285446	0.625801
1032.03	0.259583	0.626488
1032.55	0.282639	0.627441
1033.06	0.199905	0.624466
1033.58	0.262085	0.625458
1034.10	0.304413	0.625267
1034.62	0.299545	0.625839
1035.14	0.282135	0.627823
1035.66	0.294861	0.625839
1036.19	0.155258	0.625877
1036.71	0.267120	0.625992
1037.23	0.296280	0.624275
1037.75	0.292160	0.624199
1038.27	0.280472	0.622406
1038.79	0.287659	0.625076
1039.31	0.301620	0.623970
1039.83	0.288055	0.623474
1040.35	0.272308	0.622215
1040.87	0.290939	0.621948
1041.39	0.290421	0.623970
1041.91	0.281250	0.624275
1042.43	0.303879	0.622482
1042.95	0.277939	0.621834
1043.47	0.297882	0.621681
1043.99	0.278748	0.622368
1044.51	0.281189	0.623474
1045.03	0.299789	0.620842
1045.55	0.306381	0.620842
1046.07	0.277328	0.621376
1046.59	0.298553	0.622139
1047.11	0.304611	0.623093
1047.63	0.289932	0.620384
1048.15	0.297379	0.620842
1048.67	0.287735	0.619850
1049.19	0.289047	0.622177
1049.71	0.280823	0.622902
1050.23	0.295563	0.619812
1050.75	0.286728	0.620499
1051.27	0.282608	0.619431
1051.79	0.293747	0.621605
1052.31	0.297272	0.620880
1052.83	0.302841	0.619087
1053.35	0.309860	0.618057
1053.87	0.301758	0.618668
1054.39	0.278702	0.620766
1054.91	0.302551	0.619926
1055.43	0.302826	0.619202
1055.95	0.292984	0.617714
1056.47	0.300262	0.617867
1056.99	0.309875	0.619812
1057.51	0.301941	0.618401
1058.03	0.277466	0.617676
1058.55	0.278946	0.617294
1059.07	0.296509	0.617905
1059.59	0.297501	0.619354
1060.12	0.308731	0.616837
1060.64	0.302597	0.617485
1061.16	0.301590	0.618286
1061.68	0.290298	0.616684
1062.20	0.299103	0.616226
1062.72	0.290726	0.615158
1063.24	0.287811	0.616684
1063.76	0.306976	0.618019
1064.28	0.303711	0.615158
1064.80	0.291229	0.615463
1065.32	0.292694	0.616074
1065.84	0.301758	0.617638
1066.36	0.310959	0.616570
1066.88	0.306396	0.614777
1067.40	0.280502	0.614777
1067.92	0.306152	0.614586
1068.44	0.309799	0.615196
1068.96	0.239059	0.615158
1069.48	0.272324	0.614128
1070.00	0.261826	0.614281
1070.52	0.288101	0.612984
1071.04	0.285492	0.615578
1071.56	0.300598	0.614204
1072.08	0.263763	0.612068
1072.60	0.298340	0.612640
1073.12	0.279800	0.613403
1073.64	0.291672	0.614281
1074.16	0.297501	0.614014
1074.68	0.286484	0.612335
1075.20	0.296158	0.611839
1075.72	0.298538	0.612488
1076.24	0.270706	0.613823
1076.76	0.298828	0.613708
1077.28	0.300797	0.611649
1077.80	0.295364	0.611000
1078.32	0.285278	0.610313
1078.84	0.301361	0.613556
1079.36	0.291168	0.611992
1079.88	0.307632	0.611649
1080.40	0.294373	0.610580
1080.92	0.290848	0.611763
1081.44	0.291138	0.612869
1081.96	0.310822	0.613098
1082.48	0.304932	0.610695
1083.00	0.292419	0.610161
1083.52	0.298599	0.610771
1084.04	0.298386	0.611877
1084.56	0.311646	0.609932
1085.08	0.299988	0.608864
1085.60	0.291458	0.608482
1086.12	0.290878	0.608788
1086.64	0.308258	0.610428
1087.16	0.279175	0.608864
1087.68	0.306961	0.608978
1088.20	0.297363	0.608749
1088.72	0.305099	0.608673
1089.24	0.305420	0.609550
1089.76	0.300095	0.608635
1090.28	0.284103	0.608253
1090.80	0.309006	0.606384
1091.32	0.302917	0.608444
1091.84	0.305283	0.608597
1092.36	0.306107	0.606918
1092.88	0.297302	0.606575
1093.40	0.307388	0.606613
1093.92	0.301880	0.607300
1094.44	0.295700	0.606842
1094.96	0.311356	0.605888
1095.48	0.270889	0.606613
1096.00	0.269028	0.606422
1096.52	0.339462	0.607643
1097.04	0.284637	0.606651
1097.56	0.254364	0.605774
1098.08	0.249084	0.605316
1098.60	0.237976	0.605240
1099.12	0.278549	0.607147
1099.64	0.222870	0.606651
1100.16	0.262589	0.603943
1100.68	0.286499	0.604324
1101.20	0.227173	0.604897
1101.72	0.275635	0.606079
1102.24	0.324341	0.604668
1102.76	0.244370	0.603790
1103.28	0.287216	0.602417
1103.80	0.271088	0.604630
1104.32	0.213364	0.606308
1104.84	0.293396	0.604515
1105.37	0.302444	0.604134
1105.89	0.308029	0.604706
1106.41	0.264954	0.603027
1106.93	0.307510	0.602379
1107.45	0.327957	0.602188
1107.97	0.306107	0.605049
1108.49	0.297546	0.603676
1109.01	0.307129	0.603294
1109.53	0.290771	0.601425
1110.05	0.292694	0.602379
1110.57	0.320496	0.604248
1111.09	0.278946	0.602722
1111.61	0.303207	0.601997
1112.13	0.302261	0.600281
1112.65	0.311279	0.601082
1113.17	0.311661	0.602303
1113.69	0.252426	0.601273
1114.21	0.291000	0.601120
1114.73	0.316406	0.599976
1115.25	0.303238	0.601616
1115.77	0.299606	0.602036
1116.29	0.312088	0.600662
1116.81	0.305176	0.599365
1117.33	0.307861	0.599365
1117.85	0.301239	0.601845
1118.37	0.304977	0.600815
1118.89	0.310654	0.599709
1119.41	0.319473	0.598793
1119.93	0.283630	0.599213
1120.45	0.287674	0.600433
1120.97	0.313248	0.599709
1121.49	0.295731	0.599174
1122.01	0.283142	0.597725
1122.54	0.312419	0.600260
1123.06	0.305252	0.597649
1123.58	0.311371	0.596695
1124.10	0.298538	0.599098
1124.62	0.305725	0.598831
1125.14	0.304642	0.597725
1125.66	0.289215	0.596504
1126.18	0.304687	0.596581
1126.70	0.320786	0.599098
1127.22	0.302841	0.599174
1127.74	0.277435	0.597343
1128.26	0.318130	0.595970
1128.78	0.317657	0.596466
1129.30	0.299606	0.598946
1129.82	0.311249	0.597992
1130.34	0.286636	0.595779
1130.86	0.310257	0.595665
1131.38	0.311615	0.596199
1131.90	0.300827	0.598450
1132.42	0.282959	0.596886
1132.94	0.301590	0.595856
1133.46	0.317429	0.594521
1133.98	0.307236	0.596237
1134.50	0.306519	0.597534
1135.02	0.284225	0.595665
1135.54	0.312866	0.595398
1136.06	0.304550	0.594597
1136.58	0.314392	0.596085
1137.10	0.311981	0.596199
1137.62	0.307114	0.594444
1138.14	0.326950	0.595131
1138.66	0.294754	0.594292
1139.18	0.314987	0.595398
1139.70	0.279922	0.595741
1140.22	0.311523	0.593910
1140.74	0.309372	0.593452
1141.26	0.310318	0.591583
1141.78	0.295273	0.594139
1142.30	0.309662	0.594368
1142.82	0.316223	0.592613
1143.34	0.307968	0.591621
1143.86	0.311569	0.592575
1144.38	0.333740	0.593643
1144.90	0.314880	0.593872
1145.42	0.302460	0.591621
1145.94	0.275146	0.591850
1146.46	0.306702	0.593452
1146.98	0.301727	0.590858
1147.50	0.316986	0.591011
1148.02	0.281403	0.590477
1148.54	0.303619	0.593605
1149.06	0.315994	0.593071
1149.58	0.296707	0.590591
1150.10	0.306854	0.589600
1150.62	0.319824	0.590134
1151.14	0.318741	0.591011
1151.66	0.315506	0.591469
1152.18	0.324493	0.589638
1152.70	0.322815	0.589638
1153.22	0.314957	0.589561
1153.74	0.313400	0.591469
1154.27	0.312775	0.590897
1154.79	0.310074	0.588684
