#Time (S)	Lockin (mV)	Temp (V)
6.81	9.082031	0.987549
8.34	8.987664	0.976550
9.87	8.127416	0.975059
11.39	8.676038	0.975278
12.91	9.280171	0.973350
14.44	9.239926	0.973209
15.96	10.149054	0.972746
17.49	10.236482	0.973530
19.01	10.329153	0.971615
20.54	10.049907	0.971705
22.06	8.996762	0.969881
23.58	9.109786	0.969688
25.10	9.548006	0.967722
26.62	10.154451	0.968660
28.14	11.145611	0.968557
29.66	10.729132	0.966925
31.19	10.683799	0.967028
32.71	10.832751	0.966026
34.23	9.948139	0.966000
35.76	9.140317	0.965101
37.29	8.960681	0.964767
38.82	8.894223	0.966514
40.35	8.918894	0.965640
41.87	8.909488	0.965255
43.40	8.879112	0.966823
44.93	8.671104	0.967311
46.46	8.433491	0.967555
47.99	8.012233	0.971603
49.51	7.694901	0.974429
51.04	7.236791	0.977989
52.57	6.919459	0.983052
54.10	6.960783	0.987921
55.63	7.811009	0.991211
57.15	7.841694	0.996428
58.68	7.503238	1.000488
60.21	7.124692	1.005037
61.74	6.743061	1.009393
63.27	6.207699	1.014983
64.79	6.012716	1.019352
66.31	5.562551	1.021574
67.83	4.842555	1.025702
69.36	4.172779	1.029183
70.88	4.081927	1.033351
72.41	4.145045	1.036248
73.94	3.984375	1.042275
75.46	3.713067	1.046974
76.99	3.335526	1.050576
78.51	2.853017	1.054675
80.03	2.779811	1.058157
81.56	2.571186	1.062217
83.09	2.364412	1.066920
84.62	2.129729	1.070672
86.15	1.912315	1.075260
87.67	1.711400	1.081864
89.20	1.522512	1.087646
90.73	1.357987	1.094174
92.26	1.214895	1.107113
93.79	1.070107	1.141614
95.31	0.983296	1.294639
96.83	0.916930	1.654403
98.36	0.833727	2.086888
99.89	3.027447	2.370695
101.42	2.725843	2.426861
102.95	2.719675	2.437397
104.47	0.906764	2.437744
106.00	0.905119	2.438579
107.53	0.907689	2.438387
109.06	0.882401	2.438926
110.59	0.908357	2.436369
112.11	0.907381	2.437988
113.64	0.894840	2.435007
115.17	0.908717	2.435495
116.70	0.903269	2.435097
118.23	0.962222	2.436806
119.75	2.823396	2.435380
121.28	2.841437	2.435418
122.81	0.852107	2.434917
124.34	0.850519	2.433799
125.87	0.851799	2.434699
127.39	0.850427	2.433427
128.92	0.850766	2.434146
130.45	0.849039	2.434956
131.98	0.850997	2.432309
133.51	0.849023	2.433003
135.03	0.849316	2.433221
136.56	0.846880	2.431127
138.09	0.840913	2.430176
139.62	0.849949	2.429431
141.15	0.848576	2.428081
142.67	0.846926	2.430818
144.20	1.244562	2.430304
145.73	2.564864	2.427683
147.26	1.178737	2.430497
148.79	0.850550	2.430484
150.31	0.846155	2.432065
151.84	0.844691	2.431628
153.37	0.846865	2.431075
154.90	0.846433	2.431653
156.43	0.845554	2.427503
157.95	0.846880	2.429752
159.48	0.846587	2.433966
161.01	0.846001	2.428981
162.54	0.846371	2.431037
164.07	0.847636	2.431178
165.59	0.846356	2.430317
167.12	0.847003	2.429996
168.65	0.846942	2.430626
170.18	0.846695	2.429713
171.71	0.847898	2.430728
173.23	0.847466	2.430664
174.76	0.847882	2.429379
176.29	0.848715	2.432540
177.82	0.849162	2.432245
179.35	0.847898	2.430137
180.87	0.849794	2.430626
182.40	0.851814	2.431628
183.93	0.849255	2.430831
185.46	0.851444	2.431782
186.99	0.852477	2.431217
188.51	0.851228	2.431718
190.04	0.851151	2.432245
191.57	0.851753	2.430883
193.10	0.851275	2.431422
194.63	0.851398	2.432476
196.15	0.851938	2.430137
197.68	0.849733	2.432257
199.21	0.850180	2.433311
200.74	0.852246	2.431422
202.27	0.849224	2.432964
203.79	0.848330	2.432386
205.32	0.849394	2.430767
206.85	0.847651	2.432951
208.38	0.847497	2.429957
209.91	0.829071	2.431885
211.43	0.855268	2.433362
212.96	0.850288	2.432450
214.49	0.852539	2.431345
216.02	0.851676	2.432926
217.55	0.851876	2.430613
219.07	0.851876	2.431139
220.60	0.849363	2.435534
222.13	0.848900	2.432347
223.66	0.851043	2.429906
225.19	0.851136	2.424316
226.71	0.847682	2.420282
228.24	0.847466	2.420603
229.77	0.850072	2.416709
231.30	0.848067	2.404387
232.83	0.849594	2.395675
234.35	0.848407	2.397088
235.88	0.848638	2.395289
237.41	0.848962	2.377519
238.94	0.848438	2.351742
240.47	0.848037	2.336387
241.99	0.850211	2.342002
243.52	0.848237	2.314505
245.05	0.848900	2.267887
246.58	0.846587	2.243858
248.11	0.848438	2.233733
249.63	0.848993	2.232152
251.16	0.847836	2.235686
252.69	0.849933	2.249807
254.22	0.848037	2.221872
255.75	0.847003	2.155569
257.27	0.850735	2.114952
258.80	0.836765	2.093159
260.33	0.843704	2.080862
261.86	0.843935	2.075375
263.39	0.851552	2.074180
264.91	0.852107	2.072870
266.44	0.851521	2.077174
267.97	0.851799	2.082095
269.50	0.851969	2.054186
271.03	0.854066	2.016820
272.55	0.854204	1.988256
274.08	0.855638	1.927220
275.61	0.859863	1.833547
277.14	0.865738	1.751439
278.67	0.869470	1.683979
280.19	0.874789	1.631065
281.72	0.879723	1.587955
283.25	0.877919	1.557591
284.78	0.885999	1.515368
286.31	0.901357	1.438682
287.83	0.913230	1.366314
289.36	0.923838	1.303223
290.89	0.935403	1.264019
292.42	0.941016	1.231522
293.95	0.962279	1.208111
295.47	0.970821	1.186793
297.00	0.983234	1.169858
298.53	0.993149	1.156751
300.06	1.002092	1.148463
301.59	1.013240	1.139944
303.11	1.029045	1.135485
304.64	1.040903	1.129369
306.17	1.054348	1.125347
307.70	1.071279	1.120091
309.23	1.074301	1.115427
310.75	1.096705	1.115196
312.28	1.115394	1.109799
313.81	1.130505	1.108116
315.34	1.152786	1.106445
316.87	1.175421	1.102642
318.39	1.197749	1.101652
319.92	1.217594	1.098851
321.45	1.237161	1.096667
322.98	1.252303	1.097194
324.51	1.273643	1.095767
326.03	1.292732	1.094624
327.56	1.313734	1.093480
329.09	1.332345	1.091116
330.62	1.356522	1.090897
332.15	1.375010	1.088752
333.67	1.402488	1.088559
335.20	1.427745	1.088148
336.73	1.473802	1.086477
338.26	1.516823	1.084742
339.79	1.576881	1.084460
341.31	1.659468	1.082173
342.84	1.763934	1.078266
344.37	1.857314	1.076326
345.90	1.955412	1.075427
347.43	2.063040	1.071919
348.95	2.127909	1.071225
350.48	2.182895	1.068745
352.01	2.268411	1.067010
353.54	2.358815	1.064851
355.07	2.442373	1.064145
356.59	2.520719	1.062860
358.12	2.606728	1.060817
359.65	2.681173	1.059031
361.18	2.748880	1.058221
362.71	2.811405	1.056062
364.23	2.856137	1.054276
365.76	2.896073	1.053775
367.29	2.926712	1.053107
368.82	2.952246	1.049368
370.35	2.934375	1.048378
371.87	2.953927	1.047877
373.40	2.977071	1.047106
374.93	2.988127	1.046014
376.46	2.993971	1.044691
377.99	2.995605	1.044691
379.51	2.995605	1.043329
381.04	2.952755	1.042930
382.57	2.976239	1.040823
384.10	2.995605	1.038279
385.63	2.995605	1.035220
387.15	2.995605	1.029772
388.68	2.944968	1.023951
390.21	2.988266	1.019583
391.74	2.896505	1.013877
393.27	2.756682	1.007787
394.79	2.928516	1.004125
396.32	2.995605	0.992342
397.85	2.995605	0.984850
399.38	2.995605	0.982024
400.91	2.995605	0.979736
402.43	2.995605	0.977963
403.96	2.779256	0.977758
405.49	2.966895	0.976601
407.02	2.995605	0.974404
408.55	2.995605	0.974507
410.07	2.995605	0.973903
411.60	2.995605	0.973234
413.13	2.995605	0.972913
414.66	2.995605	0.970780
416.19	2.995605	0.969547
417.71	2.995605	0.969675
419.24	2.995605	0.969624
420.77	2.995605	-0.178698
422.30	2.950257	0.058080
423.83	1.210331	0.123587
425.35	-0.050144	-0.136025
426.88	0.140008	-0.011539
428.41	-0.003608	0.130500
429.94	0.221839	-0.119745
431.47	0.064299	-0.062063
432.99	0.191709	0.123741
434.52	0.045703	-0.102346
436.05	0.137479	-0.069028
437.58	0.233727	0.119064
439.11	0.022512	-0.100342
