Time (S)	Lockin (mV)	Temp (V)
2.35	6.396484	1.019287
3.88	7.478927	1.009200
5.41	7.401316	1.009766
6.93	7.313939	1.010729
8.45	7.226562	1.011783
9.97	7.147924	1.012323
11.49	7.077508	1.012580
13.01	6.935136	1.013620
14.53	6.630859	1.015676
16.05	6.510074	1.016152
17.57	6.596423	1.016910
19.09	6.463302	1.017475
20.61	6.402138	1.018876
22.13	6.283409	1.020032
23.66	6.208882	1.020611
25.19	6.119449	1.021497
26.71	6.010485	1.022731
28.23	5.902489	1.023975
29.76	5.809005	1.024324
31.28	5.733669	1.025352
32.81	5.647615	1.025609
34.34	5.556641	1.027202
35.86	5.481736	1.027598
37.39	5.414268	1.028269
38.91	5.313528	1.029657
40.44	5.221012	1.030492
41.96	5.108772	1.031027
43.49	5.045744	1.031700
45.02	4.964021	1.033807
46.54	4.914499	1.034910
48.07	4.836040	1.035850
49.59	4.718853	1.035259
51.12	4.653577	1.037752
52.65	4.544100	1.039589
54.18	4.447471	1.039666
55.71	4.247533	1.040553
57.23	4.130132	1.040520
58.75	4.212582	1.041889
60.28	4.137027	1.043727
61.81	3.998766	1.043251
63.34	3.946340	1.045307
64.87	3.900596	1.046772
66.39	3.826583	1.047273
67.92	3.772615	1.047980
69.45	3.683183	1.049715
70.98	3.590152	1.050229
72.50	3.491730	1.050480
74.03	3.456003	1.052195
75.55	3.376336	1.053325
77.08	3.302323	1.053942
78.61	3.201583	1.054842
80.14	3.111637	1.055857
81.66	3.100586	1.056765
83.19	2.893709	1.057823
84.71	2.945790	1.059090
86.23	2.835115	1.060560
87.76	2.779091	1.061061
89.29	2.570415	1.062384
90.82	2.494346	1.063104
92.35	2.524671	1.063823
93.87	2.580695	1.065083
95.40	2.469675	1.067023
96.93	2.506682	1.067229
98.46	2.481497	1.068205
99.99	2.516447	1.069182
101.51	2.335012	1.070081
103.04	2.081106	1.070826
104.57	2.246619	1.071830
106.09	2.233108	1.072946
107.62	2.187500	1.074065
109.15	2.127878	1.075658
110.67	2.097039	1.076673
112.20	2.024568	1.077238
113.73	2.000411	1.078498
115.26	1.837479	1.080245
116.78	1.885597	1.081829
118.31	1.829256	1.081980
119.83	1.806127	1.082044
121.36	1.771176	1.084318
122.89	1.747019	1.085115
124.42	1.701789	1.084974
125.95	1.457134	1.087094
127.47	1.466900	1.087608
129.00	1.640111	1.088366
130.53	1.635999	1.090718
132.06	1.616468	1.091990
133.59	1.536287	1.091296
135.11	1.404708	1.093878
136.64	1.447882	1.095549
138.17	1.370271	1.095677
139.70	0.074013	1.097952
141.23	-0.054482	1.098800
142.75	-0.039998	1.100529
144.27	1.082442	1.101113
145.80	1.372841	1.102963
147.33	1.270559	1.105006
148.86	0.253392	1.105829
150.39	0.768914	1.107448
151.91	-0.043688	1.108964
153.44	-0.029297	1.110454
154.97	-0.027755	1.112613
156.50	-0.030839	1.113898
158.03	-0.019017	1.117316
159.55	0.286801	1.118267
161.08	-0.057566	1.121839
162.61	-0.067845	1.124435
164.14	0.126953	1.127005
165.67	0.343853	1.130988
167.19	0.443565	1.134342
168.72	0.921053	1.135562
170.25	1.218133	1.140394
171.78	1.278269	1.143208
173.31	1.255140	1.147615
174.83	1.199630	1.152588
176.36	0.023643	1.157085
177.89	1.244346	1.160220
179.42	1.225843	1.166016
180.95	1.242290	1.169703
182.47	1.245888	1.173134
184.00	1.211965	1.179006
185.53	1.222245	1.185495
187.06	1.189350	1.186369
188.59	1.188836	1.192807
190.11	1.181127	1.195955
191.64	1.195004	1.199193
193.17	1.175473	1.203575
194.70	1.180099	1.208316
196.23	1.215049	1.209845
197.75	1.217105	1.215049
199.28	0.568976	1.219470
200.81	1.197574	1.222245
202.34	1.201686	1.226267
203.87	1.199630	1.229826
205.39	1.204770	1.231548
206.92	1.205798	1.235197
208.45	1.197574	1.237754
209.98	1.190892	1.240376
211.51	1.178557	1.241853
213.03	1.178557	1.243151
214.56	1.166735	1.246582
216.09	1.164679	1.248908
217.62	1.163651	1.251619
219.15	1.171875	1.254639
220.67	1.169819	1.254549
222.20	1.175987	1.257106
223.73	1.154400	1.260280
225.26	1.177015	1.260485
226.79	1.200658	1.262631
228.31	1.254112	1.263903
229.84	1.252570	1.263993
231.37	1.254112	1.266242
232.90	1.205284	1.268619
234.43	1.194490	1.268966
235.95	1.148746	1.269955
237.48	1.174445	1.273373
239.01	1.161081	1.272371
240.54	1.167763	1.272718
242.07	1.188836	1.275750
243.59	1.208882	1.275725
245.12	1.210424	1.275763
246.65	1.033614	1.278834
248.18	1.169305	1.280196
249.71	1.162623	1.281378
251.23	1.147204	1.284372
252.76	1.156456	1.285131
254.29	1.153372	1.286942
255.82	1.128701	1.290412
257.35	1.154400	1.289140
258.87	1.174445	1.289731
260.40	1.168791	1.290887
261.93	1.161595	1.291285
263.46	1.161595	1.291581
264.99	1.155942	1.292044
266.51	1.161595	1.292480
268.04	1.170847	1.293418
269.57	1.179071	1.295063
271.10	1.168277	1.293984
272.63	1.166221	1.295205
274.15	1.167249	1.294613
275.68	1.177015	1.293881
277.21	1.164165	1.296669
278.74	1.179071	1.295667
280.27	1.193462	1.294549
281.79	1.190378	1.298083
283.32	1.197060	1.296040
284.85	1.185238	1.296965
286.38	1.179585	1.296657
287.91	1.176501	1.296438
289.43	1.175987	1.294421
290.96	1.170333	1.296528
292.49	1.190378	1.296490
294.02	1.197574	1.295449
295.55	1.172389	1.296502
297.07	1.172389	1.298404
298.60	1.146690	1.296104
300.13	1.176501	1.297222
301.66	1.182669	1.298160
303.19	1.182155	1.295282
304.71	1.193976	1.296901
306.24	1.183183	1.298854
307.77	1.201686	1.296554
309.30	1.200658	1.298545
310.83	1.193462	1.297415
312.35	1.202714	1.297029
313.88	1.171875	1.296567
315.41	1.162623	1.297646
316.94	1.148746	1.298378
318.47	1.140008	1.297016
319.99	1.154914	1.298815
321.52	1.155428	1.298404
323.05	1.153372	1.296708
324.58	1.170333	1.298327
326.11	1.183183	1.298263
327.63	1.179071	1.296361
329.16	1.175473	1.298404
330.69	1.189864	1.297942
332.22	1.179585	1.298533
333.75	1.165707	1.298070
335.27	1.193462	1.297685
336.80	1.204770	1.295616
338.33	1.186780	1.298263
339.86	1.182669	1.297749
341.39	1.181127	1.296772
342.91	1.158512	1.298057
344.44	1.174959	1.297826
345.97	1.172903	1.297248
347.50	1.137952	1.297890
349.03	1.151316	1.297235
350.55	1.159539	1.297826
352.08	1.166221	1.298083
353.61	1.150288	1.297492
355.14	1.162109	1.296785
356.67	1.151316	1.297068
358.19	1.155942	1.297569
359.72	1.172903	1.295487
361.25	1.187294	1.297813
362.78	1.193462	1.298134
364.31	1.188322	1.297055
365.83	1.179585	1.296914
367.36	1.165707	1.296502
368.89	1.166735	1.296579
370.42	1.156970	1.297505
371.95	1.149260	1.296053
373.47	1.156456	1.295616
375.00	1.160567	1.294755
376.53	1.162109	1.298353
378.06	1.154914	1.296952
379.59	1.193462	1.296901
381.11	1.034642	1.296785
382.64	0.556641	1.295423
384.17	0.966283	1.294781
385.70	1.022821	1.289062
387.23	0.471834	1.262490
388.75	0.327405	1.185894
390.28	1.052118	1.112189
391.81	1.382093	1.091411
393.34	1.179071	1.077547
394.87	0.852179	1.070043
396.39	2.971320	1.063053
397.92	2.944593	1.056114
399.45	4.349815	1.052786
400.98	5.655325	1.045423
402.51	7.015831	1.036775
404.03	6.453536	1.022988
405.56	9.642784	1.007928
407.09	10.004112	0.995940
408.61	9.960418	0.990899
410.14	10.350535	0.986983
411.67	10.428146	0.986341
413.19	10.519634	0.985711
414.72	10.487767	0.985197
416.25	10.616262	0.985133
417.78	10.632196	0.984876
419.31	10.650699	0.983180
420.83	10.691817	0.982036
422.36	10.723684	0.983655
423.89	10.739104	0.982962
425.42	6.347656	0.981497
426.95	-0.069387	0.982422
428.47	-0.062192	0.981792
430.00	-0.045230	0.980893
431.53	-0.045230	0.982113
433.06	-0.036493	0.981561
434.59	-0.019017	0.981946
436.11	-0.035979	0.981715
437.64	-0.038035	0.981497
439.17	-0.047286	0.981227
440.70	-0.052426	0.981278
442.23	-0.056024	0.982293
443.75	-0.029297	0.980122
445.28	-0.029297	0.980687
446.81	-0.051398	0.980623
448.34	-0.046258	0.979968
449.87	-0.057566	0.978901
451.39	-0.042146	0.981175
452.92	-0.047800	0.981086
454.45	-0.052940	0.980597
455.98	-0.053454	0.981291
457.51	-0.052426	0.980726
459.03	-0.048314	0.980225
460.56	-0.048314	0.981368
462.09	-0.034951	0.982216
463.62	-0.029297	0.981330
465.15	-0.040604	0.980212
466.67	-0.041118	0.981985
468.20	-0.056024	0.980931
469.73	-0.036493	0.979531
471.26	-0.026727	0.980790
472.79	-0.032381	0.981831
474.31	-0.032381	0.980533
475.84	-0.049856	0.981458
477.37	-0.047800	0.981432
478.90	-0.038035	0.980687
480.43	-0.064762	0.981471
481.95	-0.054996	0.981240
483.48	-0.074527	0.979801
485.01	-0.065275	0.980250
486.54	-0.060136	0.980867
488.07	-0.052426	0.980584
489.59	-0.043174	0.980032
491.12	-0.022101	0.980764
492.65	-0.053454	0.978785
494.18	-0.026727	0.979736
495.71	-0.047800	0.980212
497.23	-0.056538	0.979955
498.76	-0.043174	0.979479
500.29	-0.060136	0.980533
501.82	-0.044202	0.980327
503.34	-0.071578	0.980516
505.01	-0.032552	0.978326
506.54	-0.022615	0.979826
508.07	-0.033923	0.980661
509.59	-0.035979	0.980122
511.12	-0.035979	0.980225
512.65	-0.039576	0.980353
514.18	-0.044202	0.980212
515.71	-0.033923	0.979197
517.23	-0.049342	0.981060
518.76	-0.044202	0.979325
520.29	-0.057052	0.979107
521.82	-0.048314	0.980494
523.35	-0.069901	0.978953
524.87	-0.077097	0.979068
526.40	-0.058594	0.979274
527.93	-0.041118	0.980559
529.46	-0.054996	0.978708
530.99	-0.056024	0.978554
532.51	-0.032381	0.979903
534.04	-0.032895	0.979454
535.57	-0.024157	0.978233
537.10	-0.030839	0.980070
538.63	-0.045744	0.978361
540.15	-0.029811	0.979711
541.68	-0.029811	0.979813
543.21	-0.044716	0.979582
544.74	-0.046772	0.978798
546.27	-0.039062	0.979338
547.79	-0.047286	0.978940
549.32	-0.056538	0.978027
550.85	-0.043688	0.979081
552.38	-0.056538	0.977783
553.91	-0.070929	0.979145
555.43	-0.051912	0.978528
556.96	-0.053968	0.978297
558.49	-0.059108	0.978631
560.02	-0.051912	0.978490
561.55	-0.035465	0.977796
563.07	-0.035979	0.976164
564.60	-0.032381	0.976999
566.13	-0.026213	0.978130
567.66	-0.039576	0.978079
569.19	-0.047800	0.977950
570.71	-0.037521	0.978027
572.24	-0.047800	0.977385
573.77	-0.054482	0.977565
575.30	-0.042660	0.976537
576.83	-0.031867	0.977038
578.35	-0.051398	0.976974
579.88	-0.043174	0.977128
581.41	-0.044202	0.976897
582.94	-0.064248	0.976755
584.47	-0.056024	0.976241
585.99	-0.064248	0.976126
587.52	-0.066817	0.976190
589.05	-0.061164	0.976331
590.58	-0.037007	0.975483
592.11	-0.044202	0.975817
593.63	-0.042660	0.975959
595.16	-0.029297	0.975252
596.69	-0.029297	0.975817
598.22	-0.028269	0.974558
599.75	-0.033923	0.975907
601.27	-0.039576	0.975123
602.80	-0.051398	0.975021
604.33	-0.045230	0.975702
605.86	-0.031867	0.974250
607.39	-0.050884	0.974776
608.91	-0.045230	0.974789
610.44	-0.052426	0.974815
611.97	-0.042660	0.973376
613.50	-0.052940	0.974751
615.03	-0.060136	0.973119
616.55	-0.069387	0.972515
618.08	-0.078125	0.974571
619.61	-0.055510	0.973196
621.14	-0.045230	0.973055
622.67	-0.049342	0.972168
624.19	-0.041118	0.973312
625.72	-0.044202	0.972361
627.25	-0.046772	0.972271
628.78	-0.044716	0.972631
630.31	-0.040090	0.971191
631.83	-0.044716	0.973055
633.36	-0.033409	0.970587
634.89	-0.044202	0.970099
636.42	-0.049856	0.971063
637.95	-0.031353	0.971821
639.47	-0.029811	0.969649
641.00	-0.048314	0.971384
642.53	-0.049856	0.970677
644.06	-0.042146	0.969572
645.59	-0.054996	0.969932
647.11	-0.066817	0.969380
648.64	-0.050370	0.969560
650.17	-0.043174	0.969033
651.70	-0.061164	0.967851
653.23	-0.074527	0.969033
654.75	-0.051398	0.968300
656.28	-0.045744	0.968776
657.81	-0.044202	0.968185
659.34	-0.035979	0.968108
660.87	-0.040604	0.966694
662.39	-0.030325	0.967542
663.92	-0.037007	0.968519
665.45	-0.053454	0.967452
666.98	-0.046772	0.966476
668.51	-0.029297	0.968442
670.03	-0.055510	0.965923
671.56	-0.038549	0.966733
673.09	-0.038549	0.967478
674.62	-0.046258	0.965216
676.15	-0.061678	0.966797
677.67	-0.046258	0.965126
679.20	-0.071957	0.965165
680.73	-0.077097	0.965204
682.26	-0.058594	0.965358
683.79	-0.063220	0.964510
685.31	-0.050370	0.964227
686.84	-0.030839	0.965036
688.37	-0.038549	0.964176
689.90	-0.035979	0.965872
691.43	-0.047286	0.964882
692.95	-0.026213	0.964047
694.48	-0.032381	0.964574
696.01	-0.028783	0.964497
697.54	-0.029811	0.963610
699.07	-0.035979	0.962968
700.59	-0.025185	0.964240
702.12	-0.052940	0.962749
703.65	-0.047286	0.963058
705.18	-0.052426	0.963559
706.71	-0.054482	0.963186
708.23	-0.047800	0.962903
709.76	-0.046772	0.964073
711.29	-0.058080	0.963366
712.82	-0.049856	0.961837
714.35	-0.057566	0.962724
715.87	-0.058080	0.962634
717.40	-0.058594	0.961336
718.93	-0.054482	0.962685
720.46	-0.044716	0.961246
721.99	-0.021587	0.961053
723.51	-0.028269	0.961606
725.04	-0.035465	0.961233
726.57	-0.053454	0.961092
728.10	-0.039062	0.961002
729.63	-0.045744	0.961426
731.15	-0.027241	0.961284
732.68	-0.024671	0.959961
734.21	-0.033409	0.960681
735.74	-0.034951	0.960269
737.27	-0.034437	0.960205
738.79	-0.050370	0.960269
740.32	-0.049856	0.959627
741.85	-0.052940	0.959370
743.38	-0.044716	0.959498
744.91	-0.052940	0.959665
746.43	-0.066303	0.959524
747.96	-0.064762	0.958560
749.49	-0.070415	0.959871
751.02	-0.072471	0.959229
752.55	-0.046258	0.958715
754.07	-0.053968	0.959049
755.60	-0.033409	0.959331
757.13	-0.047800	0.957995
758.66	-0.023643	0.958535
760.19	-0.047800	0.958316
761.71	-0.044716	0.957609
763.24	-0.040604	0.957866
764.77	-0.027241	0.958123
766.30	-0.049856	0.958008
767.83	-0.032895	0.957352
769.35	-0.041118	0.957764
770.88	-0.055510	0.957301
772.41	-0.050884	0.956903
773.94	-0.044202	0.957340
775.47	-0.049342	0.957648
776.99	-0.065789	0.956299
778.52	-0.068359	0.956607
780.05	-0.073499	0.956247
781.58	-0.071957	0.955387
783.11	-0.077611	0.956941
784.63	-0.057566	0.956247
786.16	-0.059108	0.955232
787.69	-0.046258	0.955798
789.22	-0.037521	0.956157
790.75	-0.032381	0.955926
792.27	-0.038035	0.955592
793.80	-0.042660	0.955875
795.33	-0.032381	0.954526
796.86	-0.038549	0.955117
798.39	-0.040604	0.954500
799.91	-0.031867	0.954513
801.44	-0.050884	0.954269
802.97	-0.044716	0.953883
804.50	-0.027241	0.953729
806.03	-0.052426	0.953883
807.55	-0.049342	0.953408
809.08	-0.056538	0.953241
810.61	-0.029811	0.954744
812.14	-0.048828	0.952405
813.67	-0.063220	0.953202
815.19	-0.066303	0.954808
816.72	-0.054482	0.953125
818.25	-0.058594	0.953215
819.78	-0.060650	0.952791
821.31	-0.064248	0.952958
822.83	-0.050884	0.953742
824.36	-0.031867	0.952714
825.89	-0.031353	0.952483
827.42	-0.057052	0.953395
828.95	-0.046772	0.951891
830.47	-0.039062	0.952662
832.00	-0.053968	0.952393
833.53	-0.025699	0.952174
835.06	-0.046258	0.952457
836.59	-0.044716	0.953935
838.11	-0.049342	0.952238
839.64	-0.046258	0.951891
841.17	-0.058594	0.951917
842.70	-0.046258	0.952277
844.23	-0.063734	0.950658
845.75	-0.068873	0.950324
847.28	-0.060650	0.950645
848.81	-0.070415	0.950054
850.34	-0.071957	0.950915
851.87	-0.048314	0.950658
853.39	-0.052940	0.949604
854.92	-0.051912	0.950941
856.45	-0.047800	0.948384
857.98	-0.047286	0.948808
859.51	-0.040090	0.950966
861.03	-0.049856	0.951827
862.56	-0.037007	0.951108
864.09	-0.033409	0.951557
865.62	-0.026213	0.950966
867.15	-0.044202	0.949270
868.67	-0.057566	0.948885
870.20	-0.035979	0.950028
871.73	-0.045230	0.948885
873.26	-0.045744	0.948859
874.79	-0.056024	0.948615
876.31	-0.037521	0.948525
877.84	-0.046258	0.947613
879.37	-0.060136	0.946803
880.90	-0.067331	0.947381
882.43	-0.050370	0.948679
883.95	-0.064248	0.949887
885.47	-0.048828	0.949317
886.99	-0.043578	0.949261
888.52	-0.035465	0.949039
890.05	-0.043174	0.948371
891.58	-0.049856	0.947767
893.10	-0.059217	0.947058
894.63	-0.051912	0.947690
896.15	-0.053968	0.946083
897.68	-0.064248	0.946379
899.21	-0.062192	0.946893
900.74	-0.046772	0.948486
902.27	-0.058080	0.947201
903.79	-0.044716	0.946764
905.32	-0.052940	0.947497
906.85	-0.052940	0.947060
908.38	-0.035465	0.947523
909.91	-0.047286	0.947407
911.43	-0.047286	0.945210
912.96	-0.045230	0.946880
914.49	-0.042146	0.945544
916.02	-0.034951	0.944799
917.55	-0.035979	0.946572
919.07	-0.033409	0.946495
920.60	-0.045744	0.946726
922.13	-0.040604	0.945916
923.66	-0.053968	0.945595
925.19	-0.055510	0.946199
926.71	-0.041632	0.947278
928.24	-0.035979	0.944516
929.77	-0.052426	0.945775
931.30	-0.057052	0.946340
932.83	-0.053968	0.945492
934.35	-0.066303	0.944285
935.88	-0.060650	0.946418
937.41	-0.078639	0.945942
938.94	-0.058080	0.945531
940.47	-0.060136	0.944477
941.99	-0.052426	0.944811
943.52	-0.034951	0.943359
945.05	-0.051912	0.944567
946.58	-0.069387	0.945891
948.11	-0.042660	0.944850
949.63	-0.039576	0.943938
951.16	-0.034437	0.943655
952.69	-0.034951	0.944580
954.22	-0.035465	0.945171
955.75	-0.025185	0.942897
957.27	-0.030325	0.945544
958.80	-0.035979	0.943886
960.33	-0.028269	0.943758
961.86	-0.028269	0.945300
963.39	-0.025699	0.945068
964.91	-0.061678	0.942421
966.44	-0.021073	0.943668
967.97	-0.038035	0.944606
969.50	-0.041118	0.943154
971.03	-0.065275	0.942049
972.55	-0.050370	0.942113
974.08	-0.056024	0.943257
975.61	-0.042146	0.943025
977.14	-0.067845	0.943411
978.67	-0.074527	0.944310
980.19	-0.069901	0.941740
981.72	-0.064248	0.940738
983.25	-0.070415	0.943231
984.78	-0.050370	0.941805
986.31	-0.046258	0.942755
987.83	-0.043174	0.943693
989.36	-0.049342	0.943475
990.89	-0.033409	0.941046
992.42	-0.040604	0.942396
993.95	-0.031353	0.943359
995.47	-0.033923	0.941972
997.00	-0.040604	0.942306
998.53	-0.026213	0.943090
1000.06	-0.029297	0.942344
1001.59	-0.036493	0.941329
1003.11	-0.035979	0.942884
1004.64	-0.045744	0.942319
1006.17	-0.042660	0.940571
1007.70	-0.040604	0.941072
1009.23	-0.047800	0.942139
1010.75	-0.051398	0.941766
1012.28	-0.044202	0.940250
1013.81	-0.062192	0.941034
1015.34	-0.057566	0.941702
1016.87	-0.056024	0.940777
1018.39	-0.053454	0.940365
1019.92	-0.055510	0.942884
1021.45	-0.062192	0.941303
1022.98	-0.049342	0.941149
1024.51	-0.061678	0.941149
1026.03	-0.045230	0.940687
1027.56	-0.056024	0.940121
1029.09	-0.046258	0.939967
1030.62	-0.020559	0.939954
1032.15	-0.032381	0.939543
1033.67	-0.043174	0.939723
1035.20	-0.037007	0.938862
1036.73	-0.021073	0.938734
1038.26	-0.026213	0.940828
1039.79	-0.038035	0.939659
1041.31	-0.038549	0.940031
1042.84	-0.066817	0.939723
1044.37	-0.030839	0.939376
1045.90	-0.046772	0.939659
1047.43	-0.038035	0.940096
1048.95	-0.044202	0.936459
1050.48	-0.046258	0.940571
1052.01	-0.043688	0.939132
1053.54	-0.047286	0.938682
1055.07	-0.061164	0.940096
1056.59	-0.045230	0.939003
1058.12	-0.056024	0.938656
1059.65	-0.059622	0.939209
1061.18	-0.067331	0.937641
1062.71	-0.053454	0.938361
1064.23	-0.070415	0.938926
1065.76	-0.056024	0.939697
1067.29	-0.047286	0.937808
1068.82	-0.050884	0.937706
1070.35	-0.047286	0.938849
1071.87	-0.039576	0.938875
1073.40	-0.029811	0.939800
1074.93	-0.037521	0.937744
1076.46	-0.010280	0.939286
1077.99	-0.025185	0.938708
1079.51	-0.034437	0.936845
1081.04	-0.023643	0.938631
1082.57	-0.041632	0.938554
1084.10	-0.050370	0.938271
1085.63	-0.029811	0.936806
1087.15	-0.043688	0.938181
1088.68	-0.038035	0.938541
1090.21	-0.029297	0.937718
1091.74	-0.048828	0.940083
1093.27	-0.046772	0.937384
1094.79	-0.040604	0.937115
1096.32	-0.049342	0.937911
1097.85	-0.056538	0.936896
1099.38	-0.059622	0.937230
1100.91	-0.047286	0.938065
1102.43	-0.058594	0.936138
1103.96	-0.059108	0.935932
1105.49	-0.032895	0.937423
1107.02	-0.053454	0.936678
1108.55	-0.509354	0.936832
1110.07	9.817537	0.937513
1111.60	16.067023	0.934480
1113.13	16.208131	0.936532
1114.66	16.131271	0.937796
1116.19	16.129215	0.938374
1117.71	16.130757	0.936947
1120.70	12.548828	0.950928
1122.22	16.073191	0.935290
1123.75	16.074219	0.936433
1125.27	16.071649	0.933530
1126.80	16.081414	0.935174
1128.33	16.108655	0.935328
1129.86	16.141550	0.931461
1131.39	16.147718	0.934468
1132.91	16.166221	0.938001
1134.44	16.187294	0.936202
1135.97	16.183697	0.934570
1137.50	16.170333	0.938181
1139.03	16.186780	0.938104
1140.55	12.296464	0.936331
1142.07	6.403757	0.936487
1143.60	15.721114	0.936485
1145.13	16.087068	0.936202
1146.66	16.167763	0.935534
1148.19	16.168791	0.936703
1149.71	16.193462	0.936986
1151.24	16.224301	0.935598
1152.77	16.205798	0.935701
1154.30	16.210424	0.936266
1155.83	16.195004	0.934840
1157.35	16.173417	0.936459
1158.88	16.168277	0.937654
1160.41	16.141036	0.936858
1161.94	16.153886	0.935830
1163.47	16.160567	0.937667
1164.99	16.181127	0.936215
1166.52	16.204770	0.934840
1168.05	16.214535	0.935701
1169.58	16.217105	0.936112
1171.11	16.253598	0.936279
1172.63	16.277755	0.936099
1174.16	16.282381	0.936331
1175.69	16.287521	0.935778
1177.22	16.257710	0.935161
1178.75	16.260280	0.936613
1180.27	16.251028	0.936459
1181.80	16.223787	0.937063
1183.33	16.220703	0.936164
1184.86	16.199630	0.934352
1186.39	16.199630	0.936254
1187.91	16.215563	0.936421
1189.44	16.218133	0.935495
1190.97	16.226871	0.935406
1192.50	16.237150	0.934468
1194.03	16.272615	0.935688
1195.55	16.277755	0.936087
1197.08	16.328639	0.935817
1198.61	16.301912	0.936729
1200.14	16.332751	0.936549
1201.67	16.314248	0.934814
1203.19	16.342516	0.935585
1204.72	16.305510	0.936099
1206.25	16.293688	0.936202
1207.78	16.290090	0.936536
1209.31	16.250514	0.935290
1210.83	16.288549	0.935585
1212.36	16.267475	0.935855
1213.89	16.269017	0.936395
1215.42	16.310650	0.936279
1216.95	16.279297	0.935380
1218.47	16.316817	0.935894
1220.00	16.343030	0.934198
1221.53	16.311678	0.936228
1223.06	16.370271	0.936228
1224.59	16.405222	0.936009
1226.11	16.409334	0.935727
1227.64	16.379009	0.933594
1229.17	16.374897	0.935444
1230.70	16.364104	0.936087
1232.23	16.336349	0.935495
1233.75	16.313220	0.937063
1235.28	16.324527	0.936202
1236.81	16.287007	0.934853
1238.34	16.282895	0.936575
1239.87	16.303968	0.935380
1241.39	16.293174	0.935046
1242.92	16.304482	0.936382
1244.45	16.313734	0.936883
1245.98	16.322985	0.934981
1247.51	16.367187	0.936678
1249.06	16.355880	0.935984
1250.58	16.419236	0.936721
1252.10	16.347033	0.934474
1253.63	16.314762	0.935495
1255.15	16.354825	0.934500
1256.67	16.396998	0.936189
1258.20	16.371813	0.936395
1259.73	16.375411	0.936202
1261.26	16.337891	0.936678
1262.79	16.312192	0.935624
1264.31	16.322985	0.935701
1265.84	16.321443	0.933915
1267.37	16.312192	0.933941
1268.90	16.355880	0.935393
1270.43	16.365646	0.935200
1271.95	16.358964	0.935110
1273.48	16.391345	0.935483
1275.01	16.430407	0.935251
1276.54	16.449424	0.934930
1278.07	16.424753	0.935393
1279.59	16.453022	0.935367
1281.12	16.435547	0.934480
1282.65	16.439659	0.933542
1284.18	16.419100	0.934879
1285.71	16.392373	0.933337
1287.23	16.428351	0.934943
1288.76	16.353310	0.935149
1290.29	16.369757	0.933465
1291.82	16.344572	0.934493
1293.35	16.371299	0.934840
1294.87	16.374897	0.934442
1296.40	16.351768	0.933928
1297.93	16.336349	0.934506
1299.46	16.265419	0.935650
1300.99	16.099918	0.935303
1302.51	16.194315	0.935955
1304.03	16.204770	0.936601
1305.56	16.081414	0.935997
1307.09	16.112253	0.936228
1308.62	16.087582	0.936947
1310.15	16.118421	0.935945
1311.67	16.101460	0.935483
1313.20	16.150288	0.936382
1314.73	16.112253	0.936189
1316.26	16.109169	0.935804
1317.79	16.169305	0.936408
1319.31	16.165193	0.933864
1320.84	16.251542	0.936601
1322.37	16.270045	0.937179
1323.90	16.340461	0.935149
1325.43	16.306024	0.935444
1326.95	16.326583	0.935059
1328.48	16.321443	0.936318
1330.01	16.306538	0.936523
1331.54	16.294716	0.935495
1333.07	16.293688	0.935380
1334.59	16.269531	0.935174
1336.12	16.244346	0.935881
1337.65	16.258738	0.935945
1339.18	16.252570	0.936074
1340.71	16.208882	0.935675
1342.23	16.205284	0.937911
1343.76	16.156456	0.936087
1345.29	16.179585	0.935393
1346.82	16.174445	0.936048
1348.35	16.228413	0.936369
1349.87	16.256168	0.935611
1351.40	16.195518	0.937423
1352.93	16.233553	0.935920
1354.46	16.267475	0.936935
1355.99	16.236123	0.936421
1357.51	16.317845	0.937680
1359.04	16.256168	0.937140
1360.57	16.277241	0.935997
1362.10	16.257196	0.935855
1363.63	8.231908	0.935380
1365.15	13.965358	0.938836
1366.68	16.263877	0.938322
1368.21	16.516756	0.936793
1369.74	16.433491	0.938515
1371.27	16.611842	0.937526
1372.79	16.830284	0.935932
1374.32	16.819490	0.937115
1375.85	17.050781	0.934545
1377.38	17.194696	0.935752
1378.91	17.285670	0.933388
1380.43	17.515419	0.934416
1381.96	17.560136	0.929957
1383.49	17.590461	0.931345
1385.02	17.766756	0.929983
1386.55	18.023746	0.928415
1388.07	18.311061	0.928004
1389.60	18.491468	0.926411
1391.13	18.715563	0.924972
1392.66	18.958162	0.925075
1394.19	19.249589	0.922903
1395.71	19.366776	0.919626
1397.24	18.675987	0.917827
1398.77	17.041016	0.921515
1400.30	15.250822	0.953305
1401.83	14.126748	0.990196
1403.35	13.295641	1.008365
1404.88	12.456312	1.016550
1406.41	11.656044	1.022718
1407.94	10.876850	1.026804
1409.47	10.111020	1.031738
1410.99	9.333882	1.035657
1412.52	8.604030	1.040412
1414.05	7.837685	1.044048
1415.58	7.159231	1.048982
1417.11	6.526521	1.055407
1418.63	5.869141	1.057476
1420.16	5.237973	1.061729
1421.69	4.665399	1.066291
1423.22	4.117496	1.070557
1424.75	3.594264	1.076082
1426.27	3.128084	1.082288
1427.80	2.698910	1.088584
1429.33	2.288240	1.097399
1430.86	1.946957	1.112652
1432.39	1.618228	1.154135
1433.91	1.416530	1.289538
1435.44	1.198602	1.576467
1436.97	1.099404	1.914332
1438.50	1.071135	2.314967
