Time (S)	Lockin (mV)	Temp (V)
29.90	0.043945	0.396729
31.43	0.276778	0.391923
32.96	0.284334	0.391627
34.48	0.278012	0.392231
36.00	0.284488	0.391807
37.52	0.279400	0.391460
39.04	0.280787	0.390831
40.56	0.283100	0.390985
42.08	0.275545	0.391165
43.60	0.270919	0.391550
45.12	0.263826	0.390715
46.64	0.278937	0.392193
48.16	0.282946	0.391139
49.68	0.278475	0.391422
51.20	0.283717	0.390882
52.72	0.272153	0.391332
54.24	0.277395	0.391280
55.77	0.276316	0.390843
57.30	0.284488	0.392257
58.83	0.283100	0.389918
60.36	0.277087	0.392334
61.88	0.278937	0.391576
63.41	0.277549	0.391499
64.94	0.281558	0.391023
66.47	0.283100	0.391088
68.00	0.279554	0.392116
69.52	0.280633	0.390381
71.05	0.279708	0.391987
72.58	0.282329	0.392205
74.11	0.284180	0.390959
75.64	0.281867	0.390741
77.16	0.277087	0.391820
78.69	0.283871	0.392321
80.22	0.281867	0.391370
81.75	0.283871	0.393555
83.28	0.278320	0.396253
84.80	0.277858	0.397538
86.33	0.280171	0.401650
87.86	0.329975	0.407265
89.38	0.443661	0.412130
90.90	0.318681	0.418571
92.43	0.283717	0.423969
93.96	0.278783	0.428325
95.48	0.276624	0.431114
97.01	0.278320	0.434172
98.54	0.279400	0.438618
100.07	0.278012	0.441907
101.60	0.280633	0.445685
103.12	0.280633	0.451763
104.65	0.280171	0.455181
106.18	0.281713	0.459293
107.71	0.279091	0.462968
109.24	0.285876	0.467427
110.76	0.281867	0.471705
112.29	0.279862	0.475265
113.82	0.282021	0.479428
115.35	0.284951	0.482897
116.88	0.283563	0.487061
118.40	0.277395	0.491224
119.93	0.280479	0.495773
121.46	0.280942	0.500720
122.99	0.285567	0.504227
124.52	0.281713	0.508404
126.04	0.278783	0.515998
127.57	0.277549	0.522063
129.10	0.284180	0.528115
130.63	0.280942	0.534604
132.16	0.282638	0.539204
133.68	0.282792	0.545025
135.21	0.279091	0.550653
136.74	0.280325	0.557309
138.27	0.281558	0.561009
139.80	0.280633	0.565892
141.32	0.280633	0.571687
142.85	0.279245	0.577161
144.38	0.278937	0.581106
145.91	0.281713	0.586464
147.44	0.282638	0.592028
148.96	0.279091	0.596500
150.49	0.280016	0.602038
152.02	0.279554	0.605751
153.55	0.279862	0.610814
155.08	0.282484	0.615491
156.60	0.279862	0.620708
158.13	0.284025	0.625373
159.66	0.279091	0.631142
161.19	0.286030	0.653796
162.72	0.276933	0.679700
164.24	0.279862	0.702187
165.77	0.274774	0.720266
167.30	0.281096	0.726768
168.83	0.283871	0.730096
170.36	0.281713	0.733398
171.88	0.278629	0.735981
173.41	0.279708	0.737780
174.94	0.280325	0.739348
176.47	0.287572	0.742355
178.00	0.281558	0.744488
179.52	0.281096	0.747302
181.05	0.281558	0.749692
182.57	0.280683	0.751389
184.10	0.280787	0.753739
185.63	0.281713	0.755410
187.16	0.279245	0.757980
188.68	0.277395	0.761205
190.21	0.283717	0.762772
191.74	0.282484	0.765818
193.27	0.282021	0.767373
194.80	0.279400	0.770418
196.32	0.281404	0.771613
197.85	0.279091	0.773900
199.38	0.282021	0.776033
200.91	0.276778	0.779785
202.44	0.276162	0.782625
203.96	0.277087	0.784167
205.49	0.283563	0.787354
207.02	0.283563	0.788176
208.55	0.277087	0.788047
210.08	0.279091	0.795757
211.60	0.282175	0.797582
213.13	0.280016	0.799612
214.66	0.280479	0.801694
216.19	0.280171	0.804263
217.72	0.277549	0.805291
219.24	0.280633	0.808105
220.77	0.280942	0.811151
222.30	0.286647	0.813656
223.83	0.282484	0.816997
225.36	0.277087	0.818822
226.88	0.279400	0.820428
228.41	0.278783	0.823833
229.94	0.282946	0.826699
231.47	0.280479	0.828241
233.00	0.278937	0.830297
234.52	0.282484	0.833380
236.05	0.283563	0.834974
237.58	0.284334	0.837878
239.11	0.284488	0.839792
240.64	0.278320	0.841745
242.16	0.276624	0.844624
243.69	0.281558	0.846834
245.22	0.280325	0.848838
246.75	0.284951	0.851678
248.28	0.282638	0.852886
249.80	0.283255	0.854402
251.33	0.307155	0.857756
252.86	0.284951	0.859452
254.39	0.371145	0.862035
255.92	0.271998	0.864605
257.44	0.311626	0.865954
258.97	0.289576	0.868472
260.50	0.305304	0.870773
262.03	0.281404	0.872803
263.56	0.281404	0.874666
265.08	0.280479	0.876683
266.61	0.278320	0.878893
268.14	0.281558	0.880564
269.67	0.284180	0.882980
271.20	0.287726	0.884701
272.72	0.279708	0.886629
274.25	0.284488	0.888736
275.78	0.287418	0.890869
277.31	0.285413	0.892051
278.84	0.282946	0.895122
280.36	0.283563	0.896304
281.89	0.283409	0.897988
283.42	0.283871	0.899620
284.95	0.286030	0.901200
286.48	0.288035	0.903179
288.00	0.284488	0.904759
289.53	0.280479	0.906841
291.06	0.285722	0.908280
292.59	0.288035	0.910053
294.11	0.283415	0.911361
295.64	0.276624	0.913227
297.16	0.286493	0.914795
298.69	0.281250	0.917082
300.22	0.285876	0.919100
301.75	0.283100	0.920397
303.28	0.282792	0.921759
304.80	0.285105	0.923597
306.33	0.284025	0.924895
307.86	0.282946	0.926745
309.39	0.279554	0.927927
310.92	0.284180	0.929585
312.44	0.281404	0.930458
313.97	0.278166	0.932309
315.50	0.283100	0.933517
317.03	0.284488	0.934596
318.56	0.278629	0.936305
320.08	0.275082	0.937436
321.61	0.283871	0.939633
323.14	0.281096	0.939672
324.67	0.282175	0.941869
326.20	0.280171	0.942486
327.72	0.277549	0.943783
329.25	0.279862	0.944747
330.78	0.285105	0.946006
332.31	0.282638	0.947227
333.84	0.278012	0.948088
335.36	0.280633	0.948705
336.89	0.280479	0.950439
338.42	0.288343	0.950863
339.95	0.281404	0.951814
341.48	0.279091	0.952740
343.00	0.283255	0.953857
344.53	0.280633	0.954474
346.06	0.280325	0.955387
347.59	0.289114	0.955669
349.12	0.280016	0.957789
350.64	0.277241	0.957134
352.17	0.280171	0.958702
353.70	0.281867	0.959794
355.23	0.284642	0.959627
356.76	0.282638	0.960642
358.28	0.276316	0.960925
359.81	0.283871	0.960449
361.34	0.278475	0.962030
362.87	0.285413	0.963160
364.40	0.285876	0.962762
365.92	0.280479	0.963880
367.45	0.277549	0.964060
368.98	0.277704	0.964445
370.51	0.286493	0.964561
372.03	0.284554	0.965589
373.56	0.282484	0.966321
375.08	0.282638	0.966244
376.61	0.278475	0.966874
378.14	0.285105	0.967838
379.66	0.283203	0.967380
381.18	0.279785	0.968492
382.71	0.286296	0.968248
384.23	0.282142	0.968999
385.75	0.278944	0.969706
387.28	0.280787	0.969958
388.80	0.283409	0.969739
390.33	0.281867	0.970138
391.86	0.283255	0.970652
393.39	0.277087	0.971718
394.92	0.282792	0.971718
396.44	0.287880	0.972052
397.97	0.284642	0.971744
399.50	0.282946	0.972553
401.03	0.274774	0.972810
402.56	0.279091	0.972888
404.09	0.284180	0.975599
405.61	0.281404	0.973350
407.14	0.282329	0.974545
408.67	0.283563	0.974288
410.20	0.280325	0.974352
411.72	0.284488	0.974224
413.25	0.283871	0.974751
414.78	0.279245	0.974879
416.31	0.281867	0.974751
417.83	0.278476	0.975602
419.35	0.279985	0.974731
420.87	0.273437	0.974731
422.39	0.280969	0.975874
423.92	0.282638	0.976575
425.44	0.280479	0.976383
426.97	0.282484	0.976524
428.50	0.280171	0.976665
430.03	0.282792	0.977012
431.56	0.281404	0.977128
433.08	0.279245	0.982512
434.61	0.284334	0.984388
436.14	0.278475	0.984401
437.67	0.283717	0.984478
439.20	0.287880	0.984439
440.72	0.283563	0.984079
442.25	0.281404	0.984208
443.78	0.282484	0.984002
445.31	0.280633	0.983206
446.84	0.285413	0.984336
448.36	0.285105	0.984632
449.89	0.284488	0.984465
451.42	0.280325	0.984079
452.94	0.289346	0.983834
454.46	0.283632	0.983578
455.98	0.276762	0.984679
457.51	0.283409	0.984247
459.04	0.288189	0.984632
460.56	0.037161	0.983810
462.09	-0.019428	0.984247
463.61	-0.016207	0.984523
465.14	-0.006630	0.984041
466.67	-0.005551	0.984272
468.20	-0.002775	0.984182
469.72	-0.011256	0.983900
471.25	-0.019428	0.984683
472.78	-0.013723	0.984876
474.31	-0.019120	0.984452
475.84	-0.019583	0.984722
477.36	-0.021741	0.984221
478.89	-0.020199	0.984619
480.42	-0.022975	0.984529
481.95	-0.030222	0.984375
483.48	-0.045025	0.984221
485.00	-0.031147	0.984221
486.53	-0.018657	0.984414
488.06	-0.039011	0.984722
489.59	-0.057360	0.983964
491.12	-0.002159	0.984015
492.64	0.304225	0.983861
494.17	0.159745	0.984298
495.70	0.163446	0.983835
497.23	0.160053	0.984298
498.76	0.481086	0.984324
500.28	0.359581	0.984157
501.81	0.164988	0.984516
503.34	0.166838	0.984324
504.87	0.160053	0.983064
506.40	0.165450	0.984671
507.92	0.166375	0.984606
509.45	0.161133	0.984247
510.98	0.170384	0.985005
512.51	0.164679	0.984362
514.04	0.163292	0.984709
515.56	0.166838	0.984555
517.09	0.165913	0.984645
518.62	0.166684	0.984002
520.15	0.165759	0.984478
521.68	0.165450	0.984593
523.20	0.168534	0.983758
524.73	0.168380	0.984478
526.26	0.171310	0.984234
527.79	0.167609	0.983964
529.32	0.168380	0.984439
530.84	0.164371	0.983912
532.37	0.164833	0.983655
533.90	0.168226	0.984221
535.43	0.164217	0.983386
536.96	0.163908	0.984182
538.48	0.163446	0.983951
540.01	0.168072	0.983977
541.54	0.166838	0.983681
543.07	0.142321	0.983604
544.60	0.157895	0.983707
546.12	0.162675	0.983745
547.65	0.161750	0.983591
549.18	0.164988	0.984247
550.71	0.160979	0.984208
552.24	0.159745	0.983758
553.76	0.168534	0.983707
555.29	0.164679	0.983360
556.82	0.162212	0.983296
558.35	0.161595	0.984015
559.88	0.164371	0.983848
561.40	0.166530	0.983244
562.93	0.167301	0.983835
564.46	0.167763	0.983257
565.99	0.163446	0.983617
567.52	0.165913	0.983655
569.04	0.169768	0.983013
570.57	0.166684	0.983630
572.10	0.167146	0.982679
573.63	0.164988	0.983476
575.16	0.169305	0.983180
576.68	0.157432	0.982435
578.21	0.163292	0.983257
579.74	0.166067	0.982923
581.27	0.162829	0.982705
582.80	0.166684	0.982178
584.32	0.167609	0.981420
585.85	0.168534	0.980212
587.38	0.167917	0.978143
588.91	0.168997	0.976318
590.44	0.163908	0.974699
591.96	0.170693	0.971937
593.49	0.173931	0.970343
595.02	0.168688	0.968300
596.55	0.164217	0.966244
598.08	0.162829	0.965088
599.60	0.169613	0.962608
601.13	0.168997	0.960912
602.66	0.175473	0.958933
604.19	0.172697	0.957609
605.72	0.166838	0.955297
607.24	0.170230	0.953973
608.77	0.166684	0.952534
610.30	0.164371	0.950761
611.83	0.171155	0.949823
613.36	0.166838	0.948139
614.88	0.170847	0.946636
616.41	0.172697	0.945223
617.94	0.174394	0.943873
619.47	0.174394	0.942498
621.00	0.176552	0.940353
622.52	0.172697	0.940070
624.05	0.174085	0.938040
625.58	0.173623	0.936909
627.11	0.182257	0.935585
628.64	0.182874	0.934660
630.16	0.180253	0.932990
631.69	0.173931	0.932155
633.22	0.179482	0.930163
634.75	0.179019	0.928788
636.28	0.186112	0.927966
637.80	0.187808	0.926886
639.33	0.184416	0.925319
640.86	0.190892	0.923880
642.39	0.187500	0.922774
643.92	0.183799	0.920603
645.44	0.188425	0.920063
646.97	0.191355	0.918097
648.50	0.183028	0.917802
650.03	0.191355	0.916414
651.56	0.193205	0.914808
653.08	0.193514	0.914525
654.61	0.194439	0.912893
656.14	0.195826	0.910156
657.67	0.194285	0.909809
659.20	0.193822	0.908730
660.72	0.198294	0.907368
662.25	0.199219	0.906263
663.78	0.199681	0.904978
665.31	0.197677	0.904027
666.84	0.202148	0.902241
668.36	0.198910	0.901316
669.89	0.200144	0.899787
671.42	0.203845	0.898913
672.95	0.202919	0.898103
674.48	0.205541	0.896060
676.00	0.203536	0.895559
677.53	0.202611	0.894544
679.06	0.202457	0.893002
680.59	0.207083	0.891653
682.12	0.203536	0.890522
683.64	0.203536	0.889597
685.17	0.203536	0.888608
686.70	0.207699	0.887297
688.23	0.214021	0.886102
689.76	0.207854	0.885511
691.28	0.210475	0.884187
692.81	0.210629	0.882787
694.34	0.209087	0.882042
695.87	0.212017	0.880821
697.40	0.211554	0.879562
698.92	0.214330	0.877698
700.45	0.210012	0.877069
701.98	0.213250	0.876002
703.51	0.212017	0.874113
705.04	0.214330	0.873728
706.56	0.215872	0.872366
708.09	0.212171	0.871441
709.62	0.217876	0.870747
711.15	0.210783	0.869410
712.68	0.216488	0.867316
714.20	0.208316	0.866057
715.73	0.210475	0.866301
717.26	0.143709	0.864271
718.79	0.213096	0.863680
720.32	0.143246	0.862485
721.84	0.217414	0.860994
723.37	0.224869	0.860739
724.89	0.226357	0.859979
726.42	0.220960	0.858501
727.95	0.220652	0.857293
729.48	0.222502	0.856278
731.00	0.225936	0.855235
732.52	0.225740	0.854145
734.05	0.226974	0.853310
735.58	0.226974	0.852141
737.11	0.226974	0.850959
738.64	0.513312	0.850522
740.16	2.829486	0.849051
741.68	2.546179	0.848155
743.20	0.231600	0.846525
744.73	0.193976	0.846179
746.26	0.150802	0.845253
747.79	0.191817	0.843352
749.32	0.226819	0.843197
750.84	0.232525	0.841874
752.37	0.235917	0.840897
753.90	0.238076	0.839510
755.43	0.239155	0.839188
756.96	0.234838	0.838328
758.48	0.234838	0.836387
760.01	0.236071	0.836336
761.54	0.231445	0.834948
763.06	0.237492	0.834052
764.59	0.237767	0.832854
766.12	0.235609	0.832314
767.64	0.236688	0.831003
769.17	0.237767	0.830438
770.70	0.239155	0.829102
772.23	0.239926	0.828086
773.76	0.238384	0.827457
775.28	0.240697	0.826557
776.81	0.242393	0.824604
778.34	0.236071	0.824296
779.87	0.245940	0.823114
781.40	0.249794	0.822356
782.92	0.243010	0.821212
784.45	0.243781	0.820775
785.98	0.243627	0.819554
787.51	0.245940	0.818257
789.04	0.242701	0.817858
790.56	0.247790	0.816740
792.09	0.245169	0.815571
793.62	0.249640	0.814505
795.15	0.246556	0.813669
796.68	0.245631	0.813168
798.20	0.248407	0.812243
799.73	0.251645	0.811292
801.26	0.250103	0.810123
802.79	0.248561	0.809609
804.32	0.247636	0.808491
805.84	0.252262	0.807450
807.37	0.253341	0.807180
808.90	0.253341	0.806435
810.43	0.252570	0.805626
811.96	0.257504	0.804713
813.48	0.252107	0.803274
815.01	0.251953	0.802747
816.54	0.258275	0.801552
818.07	0.260125	0.800833
819.60	0.260125	0.800396
821.12	0.260434	0.798507
822.65	0.255500	0.797942
824.18	0.253958	0.797556
825.71	0.261205	0.796425
827.24	0.256425	0.794973
828.76	0.266139	0.794035
830.29	0.260896	0.793470
831.82	0.257042	0.792146
833.35	0.260125	0.791954
834.88	0.262593	0.790489
836.40	0.264597	0.790296
837.93	0.265214	0.788677
839.46	0.266602	0.787572
840.99	0.262284	0.787688
842.52	0.264443	0.785850
844.04	0.259046	0.785156
845.57	0.263209	0.784629
847.10	0.266910	0.783858
848.63	0.269377	0.782149
850.16	0.271382	0.781970
851.68	0.266910	0.780723
853.21	0.268452	0.779862
854.74	0.270302	0.778577
856.26	0.267493	0.779246
857.79	0.271998	0.776778
859.32	0.270919	0.776547
860.84	0.268452	0.774697
862.37	0.271844	0.774401
863.90	0.266756	0.773836
865.43	0.270594	0.773926
866.96	0.274580	0.770614
868.48	0.272924	0.771921
870.01	0.272615	0.769968
871.54	0.273386	0.769878
873.07	0.271536	0.767694
874.60	0.276162	0.767321
876.12	0.281281	0.766238
877.64	0.276470	0.766627
879.17	0.278475	0.764803
880.70	0.275699	0.765394
882.22	0.280969	0.764407
883.74	0.277697	0.763537
885.26	0.276042	0.762573
886.79	0.271694	0.759423
888.45	0.283921	0.758452
889.99	0.284410	0.759209
891.52	0.278783	0.758828
893.04	0.281413	0.756877
894.57	0.282329	0.757311
896.09	0.283307	0.756901
897.62	0.280787	0.755461
899.15	0.278166	0.754934
900.68	0.281558	0.753624
902.20	0.279683	0.754806
903.72	0.292322	0.750840
905.27	0.280656	0.750149
906.80	0.287605	0.750131
908.32	0.284951	0.750283
909.85	0.283619	0.748356
911.38	0.286801	0.749550
912.91	0.288651	0.749011
914.44	0.287572	0.747893
915.96	0.286580	0.746330
917.48	0.287264	0.745618
919.01	0.285259	0.744873
920.54	0.289114	0.744128
922.06	0.290787	0.744226
923.59	0.288651	0.744076
925.12	0.289422	0.742393
926.64	0.288035	0.741622
928.17	0.294511	0.741185
929.70	0.296515	0.740890
931.23	0.293894	0.739271
932.75	0.292345	0.739045
934.28	0.287826	0.739434
935.80	0.295436	0.737677
937.33	0.294356	0.735981
938.86	0.297749	0.735647
940.39	0.296053	0.734992
941.92	0.296515	0.735069
943.45	0.296053	0.733129
944.98	0.294048	0.733270
946.51	0.294973	0.732974
948.04	0.296669	0.733180
949.56	0.300833	0.731355
951.09	0.298828	0.731458
952.62	0.296207	0.731034
954.15	0.301295	0.728721
955.68	0.297286	0.728194
957.20	0.297132	0.727462
958.73	0.294356	0.727680
960.26	0.295898	0.727141
961.79	0.300062	0.725522
963.32	0.286030	0.725367
964.84	0.289576	0.723530
966.37	0.288189	0.722900
967.90	0.295282	0.723556
969.43	0.293431	0.722618
970.96	0.299907	0.721487
972.48	0.299599	0.720832
974.01	0.299291	0.720395
975.54	0.296361	0.717966
977.07	0.297903	0.719161
978.60	0.290347	0.718789
980.12	0.300216	0.717324
981.65	0.304533	0.717259
983.18	0.302683	0.716694
984.71	0.297132	0.715576
986.24	0.305150	0.715833
987.76	0.304379	0.714882
989.29	0.306384	0.714394
990.82	0.307926	0.714445
992.35	0.304687	0.712312
993.88	0.304379	0.711451
995.40	0.304071	0.712518
996.93	0.308851	0.711708
998.46	0.304842	0.710269
999.99	0.306692	0.709678
1001.52	0.301912	0.708393
1003.04	0.308851	0.708547
1004.57	0.312551	0.708522
1006.10	0.304071	0.706530
1007.63	0.312860	0.706710
1009.16	0.306075	0.704937
1010.68	0.309468	0.705528
1012.21	0.303608	0.704821
1013.74	0.301912	0.703780
1015.27	0.312397	0.702984
1016.80	0.301758	0.703009
1018.32	0.309776	0.702097
1019.85	0.311780	0.699399
1021.38	0.317948	0.700619
1022.91	0.315789	0.699373
1024.44	0.315019	0.699604
1025.96	0.321032	0.700003
1027.49	0.315481	0.697805
1029.02	0.313322	0.697985
1030.55	0.311935	0.697664
1032.08	0.315789	0.697034
1033.60	0.317486	0.697034
1035.13	0.317640	0.696405
1036.66	0.310855	0.694593
1038.19	0.317023	0.693950
1039.72	0.319336	0.693809
1041.24	0.317177	0.692768
1042.77	0.322882	0.693488
1044.30	0.321649	0.692280
1045.83	0.320415	0.691984
1047.36	0.323345	0.692113
1048.88	0.322420	0.689517
1050.41	0.321032	0.690237
1051.94	0.320415	0.689929
1053.47	0.325966	0.688412
1055.00	0.327817	0.687873
1056.52	0.316560	0.688618
1058.05	0.318873	0.686588
1059.58	0.321340	0.686382
1061.11	0.317331	0.684506
1062.64	0.314402	0.685611
1064.16	0.320878	0.684673
1065.69	0.331363	0.683144
1067.22	0.325350	0.683221
1068.75	0.322111	0.684172
1070.28	0.317486	0.682283
1071.80	0.089433	0.682964
1073.33	-0.008326	0.682245
1074.86	-0.016961	0.680754
1076.39	-0.020045	0.681075
1077.92	-0.017424	0.679957
1079.44	-0.015574	0.679867
1080.97	-0.007401	0.678107
1082.50	-0.015111	0.677516
1084.03	1.924034	0.677644
1085.56	1.992033	0.677220
1087.08	1.271947	0.676308
1088.61	1.175884	0.677876
1090.14	0.684313	0.675293
1091.67	-0.356651	0.675190
1093.20	0.503752	0.674907
1094.72	-0.265676	0.673944
1096.25	0.526110	0.673635
1097.78	-2.345138	0.672877
1099.30	-0.817975	0.672244
1100.83	-0.138929	0.672440
1102.36	-0.136308	0.671772
1103.88	0.041478	0.670539
1105.41	0.106856	0.670487
1106.94	0.059981	0.669562
1108.47	-0.015728	0.668393
1110.00	-0.054276	0.669035
1111.52	-0.044100	0.667275
1113.05	-0.024825	0.666388
1114.58	-0.012336	0.666414
1116.11	-0.013723	0.666555
1117.64	1.794819	0.665476
1119.16	1.059005	0.664666
1120.69	0.033306	0.664628
1122.22	-0.622481	0.663716
1123.75	-0.196289	0.662521
1125.28	0.084653	0.663227
1126.80	0.155890	0.662032
1128.33	0.268760	0.661775
1129.86	-0.011410	0.661171
1131.39	-0.132915	0.661454
1132.92	-0.141088	0.660246
1134.44	-0.050884	0.659475
1135.96	-0.009350	0.660686
1137.49	-0.030068	0.657458
1139.02	-0.023746	0.658357
1140.55	0.017732	0.657586
1142.08	0.044254	0.657484
1143.60	0.026521	0.657766
1145.13	-0.028063	0.656700
1146.66	0.556024	0.655273
1148.19	0.414474	0.655556
1149.72	1.230160	0.654014
1151.24	0.530428	0.653256
1152.77	0.334910	0.653269
1154.30	0.982833	0.652935
1155.83	1.051912	0.652421
1157.36	0.679225	0.651573
1158.88	1.233707	0.651457
1160.41	-0.392887	0.650249
1161.94	0.176706	0.648463
1163.47	-0.449013	0.649221
1165.00	-0.207545	0.649825
1166.52	-0.007864	0.647474
1168.05	0.227590	0.648168
1169.58	0.176398	0.647512
1171.11	0.042249	0.646908
1172.64	-0.087428	0.646883
1174.16	-0.084498	0.646202
1175.69	-0.038857	0.645726
1177.22	-0.003701	0.644994
1178.75	-0.016499	0.644557
1180.28	-0.038394	0.644249
1181.80	-0.036390	0.644544
1183.33	0.001079	0.643362
1184.86	0.035465	0.642745
1186.39	0.033152	0.642565
1187.92	0.009714	0.642141
1189.44	-0.037778	0.642205
1190.97	-0.057206	0.640946
1192.50	-0.040090	0.640574
1194.03	-0.017270	0.640381
1195.56	0.019583	0.639276
1197.08	0.017732	0.639764
1198.61	0.001850	0.639584
1200.14	-0.020970	0.637708
1201.67	-0.032843	0.637939
1203.20	-0.027909	0.636629
1204.72	-0.017578	0.636012
1206.25	-0.011102	0.636333
1207.78	-0.008326	0.636179
1209.31	-0.002621	0.635639
1210.84	-0.011102	0.635061
1212.36	-0.016653	0.634560
1213.89	-0.016190	0.633416
1215.42	-0.017887	0.633378
1216.95	-0.010639	0.632915
1218.48	-0.012181	0.632388
1220.00	-0.014648	0.631425
1221.53	-0.012027	0.632697
1223.06	-0.015574	0.631489
1224.59	-0.009868	0.630294
1226.12	-0.012952	0.631014
1227.64	-0.014648	0.630615
1229.17	-0.020970	0.629600
1230.70	-0.016036	0.628932
1232.23	-0.012027	0.628688
1233.76	-0.007401	0.628174
1235.28	-0.010948	0.628058
1236.81	-0.011565	0.627364
1238.34	-0.015728	0.626658
1239.87	-0.017424	0.626632
1241.40	-0.021279	0.625797
1242.92	-0.014186	0.624859
1244.45	-0.011256	0.625514
1245.98	-0.012490	0.624036
1247.51	-0.011102	0.623599
1249.04	-0.016345	0.623420
1250.56	-0.014648	0.623342
1252.09	-0.014494	0.622700
1253.62	-0.017887	0.622225
1255.15	-0.014032	0.621916
1256.68	-0.008481	0.620952
1258.20	0.969881	0.620207
1259.73	1.276881	0.620580
1261.26	-0.116417	0.620387
1262.79	0.441766	0.619076
1264.32	0.318873	0.618318
1265.84	0.750925	0.618036
1267.37	0.469367	0.617277
1268.90	0.218801	0.617252
1270.43	0.275236	0.617277
1271.96	1.665296	0.280916
1273.48	0.272153	0.163227
1275.01	0.152961	0.288330
1276.54	0.714535	0.102359
1278.07	1.537315	0.235287
1279.60	1.744243	0.349134
1281.12	1.927734	0.137644
1282.65	0.692331	0.160246
1284.18	1.241725	0.325260
1285.71	-0.708522	0.202444
1287.24	0.181795	0.112510
1288.76	0.327354	0.290399
1290.29	1.004112	0.286171
1291.82	1.509868	0.098903
1293.35	0.380859	0.258532
1294.88	-0.012027	0.329860
1296.40	0.932874	0.116712
1297.93	1.697985	0.217940
1299.46	0.927323	0.340653
1300.99	0.920847	0.144120
1302.52	1.213662	0.177323
1304.04	0.904348	0.325928
1305.57	1.308954	0.173353
1307.10	1.221834	0.147512
1308.63	0.774517	0.304251
1310.16	0.972656	0.207057
1311.68	0.139700	0.118100
1313.21	0.392732	0.293084
1314.74	0.934416	0.255615
1316.27	0.285876	0.106021
1317.80	0.828176	0.279670
1319.32	0.226049	0.294935
1320.85	0.517938	0.110506
1322.38	1.227385	0.262143
1323.91	0.410002	0.315147
1325.44	1.068565	0.111508
1326.96	0.136462	0.248278
1328.49	0.330900	0.322844
1330.02	0.320724	0.115376
1331.55	0.545693	0.239373
1333.08	0.656250	0.329680
1334.60	1.241879	0.123163
1336.13	0.873972	0.220099
1337.66	0.709910	0.331710
1339.19	0.510537	0.110493
1340.72	1.150596	0.046554
1342.24	0.045179	0.162225
1343.77	0.500668	-0.086182
1345.30	1.020302	-0.031096
1346.83	0.694490	0.146716
1348.36	0.373150	-0.068334
1349.88	1.108964	-0.054096
1351.41	1.123304	0.371595
1352.94	0.623561	0.391627
1354.47	1.667609	0.389880
1356.00	0.535979	0.390921
1357.52	1.027858	0.390843
1359.05	0.436832	0.390085
1360.58	0.368061	0.390150
1362.11	0.706209	0.390574
1363.64	0.258121	0.389841
1365.16	0.398469	0.390586
1366.68	0.563785	0.389520
1368.21	0.126285	0.390317
1369.74	0.708213	0.390381
1371.27	0.926244	0.389867
1372.80	-0.168020	0.391293
1374.32	0.163086	0.391088
1375.85	-0.079770	0.390291
1377.38	-0.147153	0.390394
1378.91	0.259868	0.390792
1380.44	0.204410	0.389713
1381.96	4.764391	0.390394
1383.48	7.857328	0.389729
1385.00	9.985352	0.389976
1386.52	9.139067	0.391118
1388.05	9.985352	0.390612
1389.58	7.041324	0.390882
1391.11	8.314967	0.391062
1392.64	8.323242	0.390574
1394.16	8.412623	0.389122
1395.69	8.355674	0.391884
